src_seq,t_ms,dt_ms,ax,ay,az,gx,gy,gz,roll,pitch,yaw,pid_roll,pid_pitch,sv1,sv3
1,10437.000,0.000000,0.062000,0.019000,0.978000,2.800000,-2.590000,-1.400000,2.359000,0.000000,1.776000,4.689000,0.259000,97.000000,90.000000
2,10450.000,526.005005,0.066000,0.020000,0.990000,0.490000,-2.660000,0.070000,2.585000,0.000000,1.762000,5.166000,0.266000,97.000000,90.000000
3,10470.000,20.002001,0.073000,0.007000,1.007000,-2.100000,-3.010000,0.000000,2.331000,0.000000,1.776000,4.684000,0.301000,97.000000,90.000000
4,10490.000,20.007000,0.068000,0.010000,1.013000,0.630000,-2.730000,-0.700000,2.358000,0.000000,1.760000,4.709000,0.273000,97.000000,90.000000
5,10510.000,20.002001,0.066000,0.013000,1.004000,0.420000,-2.520000,0.280000,2.527000,0.000000,1.755000,5.051000,0.252000,97.000000,90.000000
6,10530.000,20.004999,0.066000,0.015000,0.989000,3.500000,-2.450000,17.709999,2.788000,0.000000,2.095000,5.540000,0.245000,97.000000,90.000000
7,10550.000,20.004000,0.066000,0.021000,0.994000,0.490000,-3.010000,0.910000,3.025000,0.000000,2.096000,6.046000,0.301000,96.000000,90.000000
8,10569.000,20.002001,0.064000,0.015000,0.997000,-1.190000,-3.640000,-0.420000,2.805000,0.000000,2.100000,5.623000,0.364000,97.000000,90.000000
9,10589.000,20.016001,0.074000,0.003000,1.000000,1.260000,-3.150000,0.420000,2.621000,0.000000,2.121000,5.230000,0.315000,97.000000,90.000000
10,10609.000,20.004999,0.069000,0.019000,0.994000,2.450000,-3.010000,-0.140000,2.900000,0.000000,2.101000,5.775000,0.301000,97.000000,90.000000
11,10629.000,20.009001,0.068000,0.016000,1.000000,0.070000,-1.890000,0.140000,2.734000,0.000000,2.115000,5.467000,0.189000,97.000000,90.000000
12,10649.000,20.013000,0.066000,0.011000,0.977000,-0.630000,-3.220000,-0.280000,2.494000,0.000000,2.124000,4.995000,0.322000,97.000000,90.000000
13,10669.000,20.013000,0.079000,0.010000,0.989000,17.709999,-3.570000,-0.210000,2.804000,0.000000,2.121000,5.431000,0.357000,97.000000,90.000000
14,10688.000,20.007000,0.074000,0.010000,0.996000,2.380000,-1.610000,0.420000,2.621000,0.000000,2.146000,5.219000,0.161000,97.000000,90.000000
15,10708.000,20.006001,0.068000,0.020000,1.004000,1.120000,-3.220000,0.000000,2.775000,0.000000,2.136000,5.539000,0.322000,97.000000,90.000000
16,10728.000,20.004999,0.061000,0.018000,0.999000,1.330000,-2.870000,-0.350000,2.823000,0.000000,2.126000,5.633000,0.287000,97.000000,90.000000
17,10748.000,20.011999,0.063000,0.010000,0.998000,3.080000,-2.660000,-0.350000,2.704000,0.000000,2.131000,5.376000,0.266000,97.000000,90.000000
18,10768.000,20.009001,0.066000,0.021000,1.004000,1.820000,-2.590000,0.770000,2.938000,0.000000,2.132000,5.859000,0.259000,97.000000,90.000000
19,10788.000,20.000999,0.071000,0.025000,1.009000,-1.050000,-2.030000,-0.350000,3.092000,0.000000,2.112000,6.194000,0.203000,96.000000,90.000000
20,10807.000,20.011999,0.071000,0.016000,1.000000,-0.420000,-2.170000,17.780001,2.830000,0.000000,2.484000,5.663000,0.217000,97.000000,90.000000
21,10827.000,20.007999,0.067000,0.012000,1.004000,0.140000,-2.730000,-17.639999,2.686000,0.000000,2.141000,5.371000,0.273000,97.000000,90.000000
22,10847.000,20.016001,0.063000,0.007000,0.990000,1.960000,-2.870000,-0.560000,2.533000,0.000000,2.142000,5.047000,0.287000,97.000000,90.000000
23,10867.000,20.007000,0.062000,0.018000,1.001000,2.030000,-2.800000,-0.070000,2.715000,0.000000,2.131000,5.410000,0.280000,97.000000,90.000000
24,10887.000,20.004000,0.066000,0.010000,1.005000,-0.630000,-2.240000,0.560000,2.475000,0.000000,2.156000,4.957000,0.224000,97.000000,90.000000
25,10907.000,20.004999,0.075000,0.009000,1.000000,-1.050000,-3.150000,-0.420000,2.372000,0.000000,2.153000,4.755000,0.315000,97.000000,90.000000
26,10927.000,20.003000,0.075000,0.005000,0.998000,-2.310000,-2.730000,0.210000,2.134000,0.000000,2.171000,4.291000,0.273000,97.000000,90.000000
27,10946.000,20.011999,0.063000,0.008000,0.995000,0.980000,-2.870000,-1.120000,2.193000,0.000000,2.145000,4.377000,0.287000,97.000000,90.000000
28,10966.000,20.013000,0.061000,0.031000,1.016000,0.420000,-2.450000,17.709999,2.383000,0.000000,2.485000,4.762000,0.245000,97.000000,90.000000
29,10986.000,20.000999,0.065000,-0.004000,0.999000,1.050000,-3.010000,0.000000,2.188000,0.000000,2.500000,4.365000,0.301000,97.000000,90.000000
30,11006.000,20.042000,0.074000,0.012000,0.994000,0.070000,-2.870000,-0.140000,2.368000,0.000000,2.484000,4.734000,0.287000,97.000000,90.000000
31,11026.000,20.013000,0.067000,0.007000,0.985000,-0.910000,-1.260000,0.560000,2.234000,0.000000,2.503000,4.476000,0.126000,97.000000,90.000000
32,11046.000,20.014999,0.061000,0.017000,1.009000,-4.550000,-2.800000,-0.280000,2.300000,0.000000,2.486000,4.645000,0.280000,97.000000,90.000000
33,11065.000,20.014000,0.070000,0.011000,1.019000,-3.780000,-2.660000,0.840000,2.453000,0.000000,2.487000,4.943000,0.266000,97.000000,90.000000
34,11085.000,20.002001,0.057000,-0.005000,0.982000,0.980000,-0.770000,-0.210000,2.289000,0.000000,2.495000,4.567000,0.077000,97.000000,90.000000
35,11105.000,20.002001,0.063000,0.005000,0.992000,0.770000,-3.640000,0.280000,2.172000,0.000000,2.509000,4.336000,0.364000,97.000000,90.000000
36,11125.000,20.014000,0.069000,0.003000,0.991000,-0.630000,-4.270000,-0.560000,1.990000,0.000000,2.508000,3.986000,0.427000,98.000000,90.000000
37,11145.000,20.011999,0.076000,0.015000,1.006000,-3.780000,-3.430000,-0.210000,2.123000,0.000000,2.489000,4.284000,0.343000,97.000000,90.000000
38,11165.000,20.004000,0.069000,0.004000,1.006000,-6.020000,-2.450000,0.140000,1.922000,0.000000,2.497000,3.905000,0.245000,98.000000,90.000000
39,11184.000,20.017000,0.046000,0.005000,0.994000,-5.600000,-0.070000,0.490000,1.838000,0.000000,2.505000,3.732000,0.007000,98.000000,90.000000
40,11204.000,20.014999,0.072000,0.042000,0.990000,-10.360000,-1.960000,1.120000,1.856000,0.000000,2.512000,3.816000,0.196000,98.000000,90.000000
41,11224.000,20.011000,0.070000,-0.035000,0.984000,-7.140000,-3.220000,16.940001,1.462000,0.000000,2.867000,2.996000,0.322000,98.000000,90.000000
42,11244.000,20.002001,0.071000,-0.008000,1.012000,-3.080000,-2.940000,-0.140000,1.207000,0.000000,2.879000,2.446000,0.294000,98.000000,90.000000
43,11264.000,20.006001,0.071000,-0.035000,1.014000,0.420000,-2.870000,0.420000,0.986000,0.000000,2.904000,1.968000,0.287000,99.000000,90.000000
44,11284.000,20.002001,0.064000,0.008000,0.997000,3.150000,-2.450000,0.280000,1.264000,0.000000,2.895000,2.497000,0.245000,98.000000,90.000000
45,11303.000,20.014999,0.070000,0.006000,0.985000,-5.250000,-3.220000,0.350000,1.388000,0.000000,2.886000,2.829000,0.322000,98.000000,90.000000
46,11323.000,20.000999,0.074000,-0.001000,0.998000,-13.440000,-3.570000,1.750000,1.345000,0.000000,2.905000,2.825000,0.357000,98.000000,90.000000
47,11343.000,20.000999,0.074000,-0.034000,1.023000,-6.370000,-3.360000,-2.450000,0.993000,0.000000,2.874000,2.050000,0.336000,98.000000,90.000000
48,11363.000,20.006001,0.089000,-0.038000,1.003000,-10.780000,-3.640000,0.070000,0.578000,0.000000,2.892000,1.264000,0.364000,99.000000,90.000000
49,11383.000,20.017000,0.074000,-0.043000,0.982000,-7.630000,-2.870000,2.310000,0.194000,0.000000,2.957000,0.464000,0.287000,99.000000,90.000000
50,11403.000,20.006001,0.076000,-0.015000,0.989000,-1.820000,-2.660000,-0.140000,0.383000,0.000000,2.938000,0.783000,0.266000,99.000000,90.000000
51,11422.000,20.009001,0.076000,-0.037000,1.008000,-3.570000,-3.080000,-0.630000,0.098000,0.000000,2.944000,0.231000,0.308000,99.000000,90.000000
52,11442.000,20.014999,0.073000,-0.002000,1.019000,-1.470000,-2.870000,-1.050000,0.292000,0.000000,2.907000,0.598000,0.287000,99.000000,90.000000
53,11462.000,20.007000,0.064000,-0.032000,0.995000,-2.940000,-2.520000,0.630000,0.143000,0.000000,2.928000,0.315000,0.252000,99.000000,90.000000
54,11482.000,20.006001,0.055000,-0.013000,0.990000,-4.130000,-1.540000,1.120000,0.194000,0.000000,2.941000,0.429000,0.154000,99.000000,90.000000
55,11502.000,20.017000,0.052000,-0.013000,0.985000,-4.970000,-2.030000,1.190000,0.227000,0.000000,2.956000,0.503000,0.203000,99.000000,90.000000
56,11522.000,20.007999,0.088000,-0.034000,1.017000,-1.890000,-4.480000,-1.400000,0.104000,0.000000,2.937000,0.227000,0.448000,99.000000,90.000000
57,11541.000,20.014000,0.069000,-0.023000,0.970000,-3.850000,-3.780000,-0.280000,0.198000,0.000000,2.921000,0.434000,0.378000,99.000000,90.000000
58,11561.000,20.016001,0.091000,-0.035000,1.032000,-3.150000,-1.890000,1.470000,0.034000,0.000000,2.959000,0.100000,0.189000,99.000000,90.000000
59,11581.000,20.014000,0.036000,-0.027000,1.024000,-5.600000,-2.310000,0.630000,-0.056000,0.000000,2.971000,-0.056000,0.231000,100.000000,90.000000
60,11601.000,20.013000,0.066000,-0.053000,0.981000,-1.540000,-2.100000,-1.120000,-0.300000,0.000000,2.966000,-0.585000,0.210000,100.000000,90.000000
61,11621.000,20.010000,0.068000,-0.047000,0.981000,3.710000,-2.800000,-0.070000,-0.430000,0.000000,2.982000,-0.898000,0.280000,100.000000,90.000000
62,11641.000,20.004999,0.078000,-0.026000,0.990000,2.240000,-3.570000,1.120000,-0.169000,0.000000,2.991000,-0.361000,0.357000,100.000000,90.000000
63,11661.000,20.010000,0.095000,-0.026000,1.023000,-3.430000,-2.940000,0.560000,-0.124000,0.000000,2.995000,-0.213000,0.294000,100.000000,90.000000
64,11680.000,20.002001,0.062000,0.004000,0.929000,-5.600000,-2.660000,1.470000,-0.024000,0.000000,3.009000,0.008000,0.266000,99.000000,90.000000
65,11700.000,20.004999,0.061000,-0.060000,0.956000,1.120000,-2.240000,-2.100000,-0.199000,0.000000,2.985000,-0.410000,0.224000,100.000000,90.000000
66,11720.000,20.007000,0.075000,-0.034000,1.011000,4.410000,-0.350000,-0.560000,-0.056000,0.000000,2.970000,-0.157000,0.035000,100.000000,90.000000
67,11740.000,20.011000,0.081000,-0.048000,1.027000,0.630000,-2.380000,2.310000,-0.274000,0.000000,3.035000,-0.555000,0.238000,100.000000,90.000000
68,11760.000,20.016001,0.053000,-0.040000,1.020000,-2.450000,-4.970000,0.420000,-0.352000,0.000000,3.049000,-0.680000,0.497000,100.000000,90.000000
69,11780.000,20.004999,0.068000,-0.048000,0.991000,-0.980000,-2.520000,-1.960000,-0.568000,0.000000,3.026000,-1.126000,0.252000,100.000000,90.000000
70,11799.000,20.014999,0.076000,-0.035000,0.980000,8.470000,-1.750000,-1.260000,-0.201000,0.000000,2.987000,-0.486000,0.175000,100.000000,90.000000
71,11819.000,20.014000,0.076000,-0.032000,0.984000,7.490000,-1.260000,0.630000,0.174000,0.000000,2.983000,0.272000,0.126000,99.000000,90.000000
72,11839.000,20.011000,0.074000,0.018000,1.018000,-1.330000,-3.010000,3.080000,0.370000,0.000000,3.029000,0.754000,0.301000,99.000000,90.000000
73,11859.000,20.007000,0.059000,-0.077000,1.041000,-13.230000,-3.570000,0.910000,-0.105000,0.000000,3.065000,-0.079000,0.357000,100.000000,90.000000
74,11879.000,20.011000,0.068000,-0.068000,0.990000,0.980000,-2.170000,-3.010000,-0.303000,0.000000,3.024000,-0.616000,0.217000,100.000000,90.000000
75,11899.000,20.013000,0.068000,-0.052000,0.973000,12.530000,-1.960000,-1.750000,-0.258000,0.000000,3.006000,-0.641000,0.196000,100.000000,90.000000
76,11918.000,20.014999,0.066000,0.021000,1.003000,10.920000,-2.310000,2.870000,0.181000,0.000000,3.048000,0.254000,0.231000,99.000000,90.000000
77,11938.000,20.016001,0.072000,-0.026000,1.007000,-9.030000,-3.290000,2.730000,0.096000,0.000000,3.097000,0.282000,0.329000,99.000000,90.000000
78,11958.000,20.011000,0.068000,-0.014000,1.028000,-18.200001,-3.570000,-0.700000,-0.063000,0.000000,3.070000,0.057000,0.357000,99.000000,90.000000
79,11978.000,20.007999,0.065000,-0.098000,0.996000,-9.450000,-2.800000,-0.980000,-0.478000,0.000000,3.069000,-0.861000,0.280000,100.000000,90.000000
80,11998.000,20.017000,0.065000,-0.057000,0.977000,9.940000,-1.890000,0.280000,-0.492000,0.000000,3.092000,-1.084000,0.189000,100.000000,90.000000
81,12018.000,20.009001,0.066000,-0.020000,0.949000,5.320000,-2.170000,1.120000,-0.164000,0.000000,3.100000,-0.381000,0.217000,100.000000,90.000000
82,12038.000,20.009001,0.073000,-0.071000,1.045000,-8.050000,-3.080000,1.400000,-0.555000,0.000000,3.147000,-1.030000,0.308000,100.000000,90.000000
83,12057.000,20.011000,0.073000,-0.024000,1.021000,-13.160000,-2.800000,-4.060000,-0.585000,0.000000,3.051000,-1.038000,0.280000,100.000000,90.000000
84,12077.000,20.013000,0.074000,-0.067000,0.981000,-12.460000,-2.800000,0.420000,-1.064000,0.000000,3.079000,-2.004000,0.280000,101.000000,90.000000
85,12097.000,20.004999,0.075000,-0.044000,0.954000,3.150000,-1.260000,1.890000,-0.817000,0.000000,3.104000,-1.666000,0.126000,100.000000,90.000000
86,12117.000,20.007000,0.070000,-0.039000,1.008000,-4.550000,-3.430000,3.500000,-0.768000,0.000000,3.166000,-1.491000,0.343000,100.000000,90.000000
87,12137.000,20.011999,0.067000,-0.058000,1.038000,-8.470000,-3.220000,-2.380000,-1.093000,0.000000,3.133000,-2.102000,0.322000,101.000000,90.000000
88,12157.000,20.000999,0.078000,-0.046000,1.009000,-19.530001,-3.360000,-0.350000,-1.289000,0.000000,3.115000,-2.383000,0.336000,101.000000,90.000000
89,12176.000,20.003000,0.067000,-0.090000,0.974000,-10.360000,-2.590000,0.560000,-1.721000,0.000000,3.146000,-3.337000,0.259000,101.000000,90.000000
90,12196.000,20.007000,0.067000,-0.044000,0.978000,-3.360000,-2.380000,2.660000,-1.593000,0.000000,3.187000,-3.152000,0.238000,101.000000,90.000000
91,12216.000,20.013000,0.071000,-0.077000,0.995000,-6.510000,-3.290000,0.770000,-1.942000,0.000000,3.223000,-3.820000,0.329000,101.000000,90.000000
92,12236.000,20.011999,0.074000,-0.056000,1.024000,-16.940001,-3.710000,-1.540000,-2.069000,0.000000,3.181000,-3.970000,0.371000,101.000000,90.000000
93,12256.000,20.011999,0.066000,-0.073000,0.910000,-21.629999,-3.710000,0.280000,-2.724000,0.000000,3.208000,-5.232000,0.371000,102.000000,90.000000
94,12276.000,20.000999,0.041000,-0.080000,1.003000,-5.950000,-2.240000,0.980000,-2.847000,0.000000,3.232000,-5.635000,0.224000,102.000000,90.000000
95,12295.000,20.004000,0.058000,-0.086000,0.941000,-3.990000,-3.290000,1.610000,-3.079000,0.000000,3.280000,-6.118000,0.329000,103.000000,90.000000
96,12315.000,20.009001,0.068000,-0.068000,1.007000,-6.090000,-3.010000,0.210000,-2.980000,0.000000,3.273000,-5.899000,0.301000,102.000000,90.000000
97,12335.000,20.017000,0.086000,-0.091000,1.024000,-17.150000,-3.850000,0.420000,-3.411000,0.000000,3.295000,-6.650000,0.385000,103.000000,90.000000
98,12355.000,20.002001,0.080000,-0.122000,0.992000,-11.130000,-2.730000,-0.140000,-3.861000,0.000000,3.315000,-7.610000,0.273000,103.000000,90.000000
99,12375.000,20.007999,0.064000,-0.106000,0.969000,-0.350000,-2.800000,1.330000,-4.014000,0.000000,3.358000,-8.024000,0.280000,104.000000,90.000000
100,12395.000,20.002001,0.059000,-0.080000,0.988000,-1.260000,-3.080000,-0.280000,-3.860000,0.000000,3.346000,-7.707000,0.308000,103.000000,90.000000
101,12414.000,20.004000,0.065000,-0.106000,1.025000,-12.880000,-2.730000,0.700000,-4.207000,0.000000,3.371000,-8.286000,0.273000,104.000000,90.000000
102,12434.000,20.011000,0.076000,-0.145000,0.980000,-7.700000,-3.010000,-1.190000,-4.587000,0.000000,3.370000,-9.096000,0.301000,104.000000,90.000000
103,12454.000,20.004999,0.074000,-0.129000,1.005000,1.400000,-2.940000,0.350000,-4.788000,0.000000,3.400000,-9.590000,0.294000,104.000000,90.000000
104,12474.000,20.011000,0.072000,-0.102000,0.985000,5.950000,-2.240000,-17.920000,-4.416000,0.000000,3.031000,-8.891000,0.224000,104.000000,90.000000
105,12494.000,20.014000,0.067000,-0.066000,0.982000,-2.170000,-3.220000,1.260000,-4.236000,0.000000,3.047000,-8.451000,0.322000,104.000000,90.000000
106,12514.000,20.017000,0.070000,-0.117000,0.979000,-5.530000,-3.150000,0.070000,-4.567000,0.000000,3.071000,-9.079000,0.315000,104.000000,90.000000
107,12534.000,20.010000,0.075000,-0.142000,0.997000,-0.910000,-2.240000,-0.630000,-4.813000,0.000000,3.081000,-9.617000,0.224000,104.000000,90.000000
108,12553.000,20.017000,0.076000,-0.132000,0.989000,10.150000,-2.240000,-0.560000,-4.838000,0.000000,3.092000,-9.777000,0.224000,104.000000,90.000000
109,12573.000,20.011000,0.068000,-0.080000,0.995000,7.980000,-1.680000,-0.210000,-4.457000,0.000000,3.075000,-8.994000,0.168000,104.000000,90.000000
110,12593.000,20.011999,0.061000,-0.089000,1.002000,-0.560000,-3.360000,-0.140000,-4.288000,0.000000,3.066000,-8.571000,0.336000,104.000000,90.000000
111,12613.000,20.009001,0.069000,-0.118000,1.014000,1.680000,-3.290000,-0.630000,-4.435000,0.000000,3.074000,-8.886000,0.329000,104.000000,90.000000
112,12633.000,20.006001,0.066000,-0.139000,0.998000,7.280000,-2.240000,0.210000,-4.509000,0.000000,3.099000,-9.092000,0.224000,104.000000,90.000000
113,12653.000,20.003000,0.079000,-0.100000,0.947000,11.340000,-1.960000,-0.210000,-4.174000,0.000000,3.091000,-8.460000,0.196000,104.000000,90.000000
114,12672.000,20.014000,0.089000,-0.086000,0.974000,5.880000,-2.310000,-0.770000,-3.873000,0.000000,3.065000,-7.806000,0.231000,103.000000,90.000000
115,12692.000,20.007000,0.081000,-0.093000,1.004000,4.900000,-2.450000,-0.560000,-3.549000,0.000000,3.041000,-7.146000,0.245000,103.000000,90.000000
116,12712.000,20.007000,0.031000,-0.101000,1.019000,6.160000,-2.240000,-0.070000,-3.450000,0.000000,3.046000,-6.962000,0.224000,103.000000,90.000000
117,12732.000,20.000999,0.061000,-0.100000,1.007000,11.060000,-2.520000,0.140000,-3.319000,0.000000,3.060000,-6.749000,0.252000,103.000000,90.000000
118,12752.000,20.039000,0.068000,-0.082000,0.993000,5.670000,-1.960000,-0.630000,-3.050000,0.000000,3.040000,-6.156000,0.196000,103.000000,90.000000
119,12772.000,20.003000,0.084000,-0.104000,0.969000,3.010000,-1.610000,0.490000,-3.189000,0.000000,3.067000,-6.408000,0.161000,103.000000,90.000000
120,12792.000,20.003000,0.078000,-0.108000,0.984000,6.230000,-2.450000,-1.050000,-3.290000,0.000000,3.067000,-6.642000,0.245000,103.000000,90.000000
121,12811.000,20.006001,0.085000,-0.091000,0.989000,11.270000,-2.170000,16.730000,-3.166000,0.000000,3.411000,-6.444000,0.217000,103.000000,90.000000
122,12831.000,20.000999,0.071000,-0.039000,1.020000,9.730000,-1.890000,0.000000,-2.749000,0.000000,3.396000,-5.595000,0.189000,102.000000,90.000000
123,12851.000,20.007000,0.060000,-0.053000,1.001000,3.150000,-2.450000,0.000000,-2.507000,0.000000,3.386000,-5.046000,0.245000,102.000000,90.000000
124,12871.000,20.016001,0.064000,-0.077000,0.999000,-0.700000,-2.520000,-0.070000,-2.547000,0.000000,3.390000,-5.088000,0.252000,102.000000,90.000000
125,12891.000,20.006001,0.074000,-0.125000,0.978000,2.100000,-2.520000,-1.470000,-2.733000,0.000000,3.382000,-5.486000,0.252000,102.000000,90.000000
126,12911.000,20.011999,0.081000,-0.096000,0.982000,6.790000,-2.380000,0.140000,-2.819000,0.000000,3.406000,-5.706000,0.238000,102.000000,90.000000
127,12930.000,20.009001,0.076000,-0.077000,1.008000,6.860000,-2.590000,0.840000,-2.497000,0.000000,3.413000,-5.062000,0.259000,102.000000,90.000000
128,12950.000,20.006001,0.065000,-0.038000,1.013000,4.060000,-2.870000,-0.210000,-2.200000,0.000000,3.396000,-4.441000,0.287000,102.000000,90.000000
129,12970.000,20.010000,0.060000,-0.052000,0.988000,-1.680000,-2.660000,-17.639999,-2.041000,0.000000,3.034000,-4.066000,0.266000,102.000000,90.000000
130,12990.000,20.011000,0.070000,-0.082000,0.978000,-2.800000,-2.170000,-0.140000,-2.321000,0.000000,3.051000,-4.613000,0.217000,102.000000,90.000000
131,13010.000,20.020000,0.082000,-0.108000,1.011000,-3.150000,-2.660000,0.280000,-2.611000,0.000000,3.078000,-5.190000,0.266000,102.000000,90.000000
132,13030.000,20.011999,0.073000,-0.111000,1.002000,3.010000,-2.870000,-0.070000,-2.778000,0.000000,3.098000,-5.587000,0.287000,102.000000,90.000000
133,13050.000,20.004999,0.061000,-0.068000,0.994000,4.760000,-2.380000,0.280000,-2.553000,0.000000,3.098000,-5.154000,0.238000,102.000000,90.000000
134,13069.000,20.002001,0.059000,-0.038000,0.982000,2.520000,-2.240000,-0.700000,-2.290000,0.000000,3.072000,-4.606000,0.224000,102.000000,90.000000
135,13089.000,20.007000,0.077000,-0.039000,1.009000,-7.000000,-1.960000,0.700000,-2.203000,0.000000,3.071000,-4.335000,0.196000,102.000000,90.000000
136,13109.000,20.016001,0.081000,-0.112000,1.013000,-8.120000,-3.010000,-0.980000,-2.592000,0.000000,3.073000,-5.103000,0.301000,102.000000,90.000000
137,13129.000,20.016001,0.082000,-0.115000,0.989000,-2.800000,-2.590000,-0.350000,-2.874000,0.000000,3.088000,-5.720000,0.259000,102.000000,90.000000
138,13149.000,20.000999,0.071000,-0.101000,0.985000,4.620000,-2.380000,-0.630000,-3.000000,0.000000,3.096000,-6.047000,0.238000,103.000000,90.000000
139,13169.000,20.007999,0.069000,-0.021000,0.935000,2.590000,-2.660000,1.960000,-2.723000,0.000000,3.122000,-5.473000,0.266000,102.000000,90.000000
140,13189.000,20.004999,0.073000,-0.073000,1.030000,-6.580000,-3.220000,-0.140000,-2.695000,0.000000,3.112000,-5.324000,0.322000,102.000000,90.000000
141,13208.000,20.013000,0.063000,-0.105000,1.122000,-8.820000,-4.550000,-0.350000,-3.004000,0.000000,3.122000,-5.920000,0.455000,102.000000,90.000000
142,13228.000,20.014000,0.090000,-0.115000,0.917000,-5.390000,-2.240000,-0.980000,-3.312000,0.000000,3.122000,-6.571000,0.224000,103.000000,90.000000
143,13248.000,20.002001,0.091000,-0.081000,0.895000,5.740000,2.310000,-0.420000,-3.213000,0.000000,3.110000,-6.483000,-0.231000,103.000000,89.000000
144,13268.000,20.027000,0.076000,-0.078000,0.998000,-4.760000,-2.590000,2.310000,-3.108000,0.000000,3.144000,-6.168000,0.259000,103.000000,90.000000
145,13288.000,20.011999,0.071000,-0.108000,1.112000,-1.680000,-4.480000,-1.190000,-3.270000,0.000000,3.139000,-6.522000,0.448000,103.000000,90.000000
146,13308.000,20.000999,0.086000,-0.103000,1.011000,-4.760000,-5.530000,0.280000,-3.576000,0.000000,3.171000,-7.105000,0.553000,103.000000,90.000000
147,13327.000,20.016001,0.057000,-0.078000,0.876000,6.020000,-1.190000,-0.490000,-3.394000,0.000000,3.159000,-6.847000,0.119000,103.000000,90.000000
148,13347.000,20.007999,0.073000,-0.045000,1.032000,-3.990000,3.920000,1.960000,-3.250000,0.000000,3.173000,-6.460000,-0.392000,103.000000,89.000000
149,13367.000,20.007000,0.092000,-0.134000,1.058000,-10.430000,-3.640000,-0.490000,-3.679000,0.000000,3.187000,-7.255000,0.364000,103.000000,90.000000
150,13387.000,20.003000,0.055000,-0.135000,0.984000,-4.830000,-9.590000,-0.910000,-3.976000,0.000000,3.203000,-7.904000,0.959000,103.000000,90.000000
151,13407.000,20.014000,0.069000,-0.106000,0.949000,10.570000,-3.150000,0.070000,-3.943000,0.000000,3.225000,-7.991000,0.315000,103.000000,90.000000
152,13427.000,20.010000,0.076000,-0.022000,0.999000,8.890000,0.420000,0.490000,-3.537000,0.000000,3.216000,-7.163000,-0.042000,103.000000,89.000000
153,13446.000,20.000999,0.057000,-0.065000,1.063000,-8.260000,-2.100000,0.770000,-3.523000,0.000000,3.221000,-6.964000,0.210000,103.000000,90.000000
154,13466.000,20.007999,0.077000,-0.111000,0.919000,-10.220000,-3.010000,-1.050000,-3.948000,0.000000,3.223000,-7.794000,0.301000,103.000000,90.000000
155,13486.000,20.004000,0.084000,-0.160000,0.956000,-0.070000,-2.590000,0.000000,-4.177000,0.000000,3.247000,-8.353000,0.259000,104.000000,90.000000
156,13506.000,20.007999,0.084000,-0.131000,1.058000,13.020000,-2.170000,-0.350000,-4.144000,0.000000,3.262000,-8.419000,0.217000,104.000000,90.000000
157,13526.000,20.027000,0.062000,-0.038000,1.021000,6.790000,-3.430000,0.980000,-3.792000,0.000000,3.272000,-7.652000,0.343000,103.000000,90.000000
158,13546.000,20.017000,0.055000,-0.040000,0.925000,1.540000,-2.380000,-0.560000,-3.547000,0.000000,3.248000,-7.110000,0.238000,103.000000,90.000000
159,13566.000,20.000999,0.071000,-0.078000,0.995000,-5.600000,-2.660000,-0.630000,-3.459000,0.000000,3.224000,-6.862000,0.266000,103.000000,90.000000
160,13585.000,20.004000,0.085000,-0.155000,1.078000,-2.380000,-3.290000,-1.680000,-3.734000,0.000000,3.215000,-7.443000,0.329000,103.000000,90.000000
161,13605.000,20.009001,0.072000,-0.127000,0.980000,3.780000,-4.060000,0.000000,-3.882000,0.000000,3.241000,-7.803000,0.406000,103.000000,90.000000
162,13625.000,20.017000,0.058000,-0.091000,0.966000,13.440000,-2.590000,0.350000,-3.562000,0.000000,3.249000,-7.258000,0.259000,103.000000,90.000000
163,13645.000,20.014000,0.066000,-0.042000,1.000000,3.920000,-0.840000,0.910000,-3.262000,0.000000,3.252000,-6.564000,0.084000,103.000000,90.000000
164,13665.000,20.017000,0.058000,-0.083000,1.004000,-6.160000,-3.290000,-0.770000,-3.318000,0.000000,3.237000,-6.574000,0.329000,103.000000,90.000000
165,13685.000,20.002001,0.071000,-0.119000,0.986000,-5.110000,-4.760000,-1.400000,-3.646000,0.000000,3.235000,-7.241000,0.476000,103.000000,90.000000
166,13704.000,20.016001,0.084000,-0.148000,1.024000,5.320000,-2.170000,0.000000,-3.767000,0.000000,3.256000,-7.587000,0.217000,103.000000,90.000000
167,13724.000,20.014000,0.076000,-0.077000,0.985000,11.830000,-2.100000,0.140000,-3.302000,0.000000,3.245000,-6.723000,0.210000,103.000000,90.000000
168,13744.000,20.011999,0.062000,-0.053000,0.952000,5.880000,-2.450000,0.840000,-2.973000,0.000000,3.250000,-6.006000,0.245000,103.000000,90.000000
169,13764.000,20.000999,0.056000,-0.046000,0.989000,-3.430000,-2.730000,0.280000,-2.842000,0.000000,3.245000,-5.650000,0.273000,102.000000,90.000000
170,13784.000,20.025000,0.072000,-0.120000,1.075000,-5.460000,-3.010000,-1.260000,-3.168000,0.000000,3.241000,-6.281000,0.301000,103.000000,90.000000
171,13804.000,20.010000,0.078000,-0.110000,0.996000,4.340000,-2.940000,-0.350000,-3.309000,0.000000,3.257000,-6.661000,0.294000,103.000000,90.000000
172,13824.000,20.003000,0.074000,-0.069000,0.945000,8.260000,-1.750000,-0.350000,-2.915000,0.000000,3.235000,-5.912000,0.175000,102.000000,90.000000
173,13843.000,20.007999,0.059000,-0.037000,0.985000,4.410000,0.210000,0.210000,-2.614000,0.000000,3.222000,-5.272000,-0.021000,102.000000,89.000000
174,13863.000,20.014000,0.062000,-0.096000,1.064000,-6.020000,-4.760000,-0.700000,-2.867000,0.000000,3.226000,-5.674000,0.476000,102.000000,90.000000
175,13883.000,20.013000,0.099000,-0.125000,1.016000,-1.960000,-3.640000,-1.890000,-3.105000,0.000000,3.209000,-6.191000,0.364000,103.000000,90.000000
176,13903.000,20.016001,0.084000,-0.099000,0.924000,3.290000,-1.960000,1.050000,-3.238000,0.000000,3.249000,-6.508000,0.196000,103.000000,90.000000
177,13923.000,20.007999,0.093000,-0.060000,0.945000,8.470000,1.680000,0.000000,-2.880000,0.000000,3.231000,-5.844000,-0.168000,102.000000,89.000000
178,13943.000,20.009001,0.077000,-0.069000,1.037000,-3.570000,-3.010000,1.190000,-2.752000,0.000000,3.243000,-5.468000,0.301000,102.000000,90.000000
179,13963.000,20.006001,0.053000,-0.096000,1.054000,-1.610000,-5.950000,-1.330000,-2.862000,0.000000,3.232000,-5.708000,0.595000,102.000000,90.000000
180,13983.000,20.004000,0.081000,-0.075000,0.962000,-0.420000,-3.010000,-0.560000,-2.718000,0.000000,3.213000,-5.433000,0.301000,102.000000,90.000000
181,14002.000,20.010000,0.066000,-0.100000,1.010000,4.270000,-0.770000,0.490000,-2.800000,0.000000,3.238000,-5.643000,0.077000,102.000000,90.000000
182,14022.000,20.017000,0.053000,-0.069000,1.036000,-1.960000,-2.450000,1.050000,-2.749000,0.000000,3.256000,-5.479000,0.245000,102.000000,90.000000
183,14042.000,20.011999,0.074000,-0.119000,0.955000,-5.250000,-3.150000,-0.630000,-3.083000,0.000000,3.266000,-6.113000,0.315000,103.000000,90.000000
184,14062.000,20.000999,0.079000,-0.103000,0.982000,-1.260000,-2.870000,-0.980000,-3.336000,0.000000,3.270000,-6.659000,0.287000,103.000000,90.000000
185,14082.000,20.017000,0.086000,-0.102000,1.008000,4.620000,-2.450000,-0.280000,-3.457000,0.000000,3.286000,-6.960000,0.245000,103.000000,90.000000
186,14102.000,20.007999,0.074000,-0.046000,1.002000,2.800000,-2.800000,0.630000,-3.178000,0.000000,3.285000,-6.384000,0.280000,103.000000,90.000000
187,14121.000,20.007999,0.063000,-0.080000,0.980000,-3.080000,-2.660000,0.070000,-3.183000,0.000000,3.287000,-6.335000,0.266000,103.000000,90.000000
188,14141.000,20.011000,0.071000,-0.091000,0.993000,-3.780000,-2.240000,0.140000,-3.357000,0.000000,3.301000,-6.677000,0.224000,103.000000,90.000000
189,14161.000,20.004000,0.074000,-0.123000,1.011000,-2.730000,-2.870000,0.980000,-3.641000,0.000000,3.343000,-7.254000,0.287000,103.000000,90.000000
190,14181.000,20.004999,0.072000,-0.101000,0.996000,4.620000,-2.310000,-0.700000,-3.716000,0.000000,3.347000,-7.478000,0.231000,103.000000,90.000000
191,14201.000,20.016001,0.067000,-0.055000,0.993000,3.220000,-1.960000,0.560000,-3.429000,0.000000,3.345000,-6.891000,0.196000,103.000000,90.000000
192,14221.000,20.016001,0.064000,-0.049000,0.992000,1.120000,-2.520000,-0.490000,-3.185000,0.000000,3.323000,-6.382000,0.252000,103.000000,90.000000
193,14240.000,20.013000,0.072000,-0.074000,0.994000,-5.880000,-2.730000,1.330000,-3.083000,0.000000,3.337000,-6.107000,0.273000,103.000000,90.000000
194,14260.000,20.000999,0.080000,-0.128000,1.013000,-1.750000,-2.450000,-0.910000,-3.345000,0.000000,3.341000,-6.673000,0.245000,103.000000,90.000000
195,14280.000,20.014000,0.079000,-0.122000,0.999000,0.140000,-2.450000,-17.780001,-3.543000,0.000000,3.008000,-7.088000,0.245000,103.000000,90.000000
196,14300.000,20.010000,0.069000,-0.106000,0.980000,6.790000,-2.310000,-0.910000,-3.606000,0.000000,3.009000,-7.280000,0.231000,103.000000,90.000000
197,14320.000,20.004000,0.068000,-0.059000,0.977000,1.680000,-2.800000,1.050000,-3.352000,0.000000,3.018000,-6.722000,0.280000,103.000000,90.000000
198,14340.000,20.013000,0.078000,-0.083000,0.995000,-0.560000,-2.870000,-0.420000,-3.135000,0.000000,2.997000,-6.264000,0.287000,103.000000,90.000000
199,14359.000,20.009001,0.082000,-0.076000,1.010000,-2.030000,-2.520000,0.420000,-2.953000,0.000000,2.993000,-5.885000,0.252000,102.000000,90.000000
200,14379.000,20.007999,0.074000,-0.112000,1.004000,2.870000,-1.820000,-0.840000,-3.117000,0.000000,2.997000,-6.264000,0.182000,103.000000,90.000000
201,14399.000,20.000999,0.060000,-0.073000,0.997000,2.100000,-2.450000,-0.140000,-2.953000,0.000000,2.988000,-5.927000,0.245000,102.000000,90.000000
202,14419.000,20.014999,0.051000,-0.090000,0.988000,1.260000,-2.590000,-0.700000,-2.994000,0.000000,2.984000,-6.000000,0.259000,103.000000,90.000000
203,14439.000,20.009001,0.068000,-0.079000,1.002000,-0.070000,-2.800000,-17.500000,-2.839000,0.000000,2.629000,-5.677000,0.280000,102.000000,90.000000
204,14459.000,20.014000,0.084000,-0.109000,1.005000,1.470000,-2.310000,0.210000,-3.023000,0.000000,2.653000,-6.061000,0.231000,103.000000,90.000000
205,14479.000,20.011999,0.086000,-0.086000,0.987000,1.960000,-2.940000,0.280000,-3.032000,0.000000,2.667000,-6.083000,0.294000,103.000000,90.000000
206,14498.000,20.003000,0.081000,-0.107000,1.022000,-0.630000,-2.520000,-0.560000,-3.272000,0.000000,2.678000,-6.538000,0.252000,103.000000,90.000000
207,14518.000,20.002001,0.061000,-0.072000,0.991000,2.520000,-2.030000,-0.490000,-3.076000,0.000000,2.661000,-6.178000,0.203000,103.000000,90.000000
208,14538.000,20.002001,0.057000,-0.105000,0.960000,0.420000,-2.800000,0.770000,-3.246000,0.000000,2.694000,-6.496000,0.280000,103.000000,90.000000
209,14558.000,20.004000,0.074000,-0.111000,1.036000,-17.709999,-2.520000,-0.280000,-3.820000,0.000000,2.710000,-7.462000,0.252000,103.000000,90.000000
210,14578.000,20.003000,0.081000,-0.126000,1.019000,-0.700000,-2.520000,0.280000,-4.062000,0.000000,2.738000,-8.117000,0.252000,104.000000,90.000000
211,14598.000,20.000999,0.072000,-0.087000,0.975000,4.200000,-2.590000,-0.630000,-3.762000,0.000000,2.714000,-7.567000,0.259000,103.000000,90.000000
212,14617.000,20.004000,0.076000,-0.061000,0.979000,2.940000,-2.310000,-0.140000,-3.475000,0.000000,2.698000,-6.979000,0.231000,103.000000,90.000000
213,14637.000,20.017000,0.077000,-0.039000,0.987000,2.520000,-2.590000,0.210000,-3.196000,0.000000,2.689000,-6.418000,0.259000,103.000000,90.000000
214,14657.000,20.016001,0.075000,-0.082000,1.025000,-4.410000,-3.360000,0.630000,-3.110000,0.000000,2.694000,-6.176000,0.336000,103.000000,90.000000
215,14677.000,20.003000,0.067000,-0.110000,0.990000,-0.630000,-2.380000,-0.840000,-3.334000,0.000000,2.697000,-6.662000,0.238000,103.000000,90.000000
216,14697.000,20.010000,0.064000,-0.108000,1.019000,1.610000,-2.450000,-0.280000,-3.476000,0.000000,2.709000,-6.968000,0.245000,103.000000,90.000000
217,14717.000,20.014999,0.065000,-0.096000,0.987000,3.290000,-2.310000,-0.630000,-3.512000,0.000000,2.709000,-7.056000,0.231000,103.000000,90.000000
218,14736.000,20.004999,0.076000,-0.072000,0.989000,0.070000,-2.730000,0.910000,-3.288000,0.000000,2.716000,-6.576000,0.273000,103.000000,90.000000
219,14756.000,20.014999,0.078000,-0.096000,0.985000,-0.420000,-2.520000,-1.050000,-3.496000,0.000000,2.714000,-6.989000,0.252000,103.000000,90.000000
220,14776.000,20.010000,0.081000,-0.090000,0.981000,-0.070000,-2.590000,1.190000,-3.475000,0.000000,2.741000,-6.950000,0.259000,103.000000,90.000000
221,14796.000,20.011000,0.077000,-0.099000,1.014000,1.820000,-2.240000,-0.560000,-3.579000,0.000000,2.745000,-7.176000,0.224000,103.000000,90.000000
222,14816.000,20.007000,0.060000,-0.083000,1.018000,0.770000,-2.940000,0.980000,-3.446000,0.000000,2.761000,-6.900000,0.294000,103.000000,90.000000
223,14836.000,20.017000,0.055000,-0.090000,0.984000,0.840000,-2.590000,-0.840000,-3.430000,0.000000,2.749000,-6.868000,0.259000,103.000000,90.000000
224,14856.000,20.010000,0.061000,-0.075000,0.978000,0.350000,-1.750000,-0.140000,-3.244000,0.000000,2.736000,-6.491000,0.175000,103.000000,90.000000
225,14875.000,20.006001,0.088000,-0.093000,1.004000,-0.140000,-2.800000,0.210000,-3.315000,0.000000,2.751000,-6.629000,0.280000,103.000000,90.000000
226,14895.000,20.014000,0.079000,-0.087000,1.019000,0.490000,-3.150000,-0.560000,-3.076000,0.000000,2.727000,-6.156000,0.315000,103.000000,90.000000
227,14915.000,20.011000,0.071000,-0.085000,1.007000,1.680000,-3.220000,-0.280000,-3.018000,0.000000,2.725000,-6.053000,0.322000,103.000000,90.000000
src_seq,t_ms,dt_ms,ax,ay,az,gx,gy,gz,roll,pitch,yaw,pid_roll,pid_pitch,sv1,sv3
228,14935.000,20.000999,0.065000,-0.064000,0.947000,1.890000,-2.240000,0.000000,-2.771000,0.000000,2.714000,-5.560000,0.224000,102.000000,90.000000
229,14955.000,20.011999,0.069000,-0.091000,1.004000,-1.890000,-1.610000,0.000000,-3.007000,0.000000,2.731000,-5.996000,0.161000,102.000000,90.000000
230,14975.000,20.011999,0.076000,-0.116000,1.026000,-2.310000,-2.870000,0.630000,-3.284000,0.000000,2.765000,-6.544000,0.287000,103.000000,90.000000
231,14994.000,20.011000,0.080000,-0.122000,1.007000,2.380000,-3.290000,-0.770000,-3.462000,0.000000,2.772000,-6.948000,0.329000,103.000000,90.000000
232,15014.000,20.003000,0.077000,-0.077000,0.964000,5.530000,-1.960000,-0.420000,-3.131000,0.000000,2.751000,-6.318000,0.196000,103.000000,90.000000
233,15034.000,20.017000,0.070000,-0.056000,0.985000,1.330000,-2.380000,17.430000,-2.909000,0.000000,3.086000,-5.831000,0.238000,102.000000,90.000000
234,15054.000,20.030001,0.076000,-0.076000,1.023000,-6.090000,-2.660000,-0.070000,-2.822000,0.000000,3.073000,-5.583000,0.266000,102.000000,90.000000
235,15074.000,20.010000,0.081000,-0.124000,1.006000,-2.660000,-2.870000,0.280000,-3.104000,0.000000,3.101000,-6.182000,0.287000,103.000000,90.000000
236,15094.000,20.014999,0.068000,-0.107000,0.976000,5.460000,-2.730000,-0.560000,-3.210000,0.000000,3.111000,-6.474000,0.273000,103.000000,90.000000
237,15114.000,20.011000,0.074000,-0.070000,0.996000,5.180000,-1.050000,0.490000,-2.883000,0.000000,3.105000,-5.817000,0.105000,102.000000,90.000000
238,15134.000,20.018999,0.042000,-0.077000,1.040000,-3.150000,-3.780000,0.210000,-2.901000,0.000000,3.112000,-5.770000,0.378000,102.000000,90.000000
239,15153.000,20.003000,0.064000,-0.083000,0.977000,-2.170000,-4.340000,-0.280000,-3.008000,0.000000,3.118000,-5.995000,0.434000,102.000000,90.000000
240,15173.000,20.009001,0.081000,-0.096000,0.974000,3.290000,-2.030000,-0.210000,-3.126000,0.000000,3.131000,-6.285000,0.203000,103.000000,90.000000
241,15193.000,20.004999,0.073000,-0.085000,0.995000,3.990000,-2.380000,17.780001,-2.999000,0.000000,3.485000,-6.037000,0.238000,103.000000,90.000000
242,15213.000,20.011999,0.072000,-0.085000,0.999000,-2.520000,-2.380000,17.850000,-3.255000,0.000000,3.859000,-6.485000,0.238000,103.000000,90.000000
243,15233.000,20.002001,0.069000,-0.109000,1.011000,-2.800000,-2.870000,-0.280000,-3.528000,0.000000,3.874000,-7.029000,0.287000,103.000000,90.000000
244,15253.000,20.007999,0.071000,-0.104000,0.984000,3.990000,-2.240000,0.630000,-3.675000,0.000000,3.908000,-7.390000,0.224000,103.000000,90.000000
245,15273.000,20.000999,0.074000,-0.077000,1.000000,4.620000,-2.310000,-0.140000,-3.354000,0.000000,3.892000,-6.754000,0.231000,103.000000,90.000000
246,15292.000,20.010000,0.081000,-0.073000,0.977000,-1.820000,-3.080000,-0.070000,-3.190000,0.000000,3.881000,-6.362000,0.308000,103.000000,90.000000
247,15312.000,20.003000,0.074000,-0.093000,1.020000,-4.130000,-3.430000,1.050000,-3.406000,0.000000,3.918000,-6.771000,0.343000,103.000000,90.000000
248,15332.000,20.014000,0.059000,-0.104000,0.993000,2.660000,-2.520000,-1.330000,-3.494000,0.000000,3.907000,-7.014000,0.252000,103.000000,90.000000
249,15352.000,20.006001,0.069000,-0.086000,0.968000,4.130000,-2.240000,-0.210000,-3.223000,0.000000,3.893000,-6.488000,0.224000,103.000000,90.000000
250,15372.000,20.011000,0.072000,-0.072000,1.004000,0.630000,-1.960000,-0.070000,-2.982000,0.000000,3.879000,-5.970000,0.196000,102.000000,90.000000
251,15392.000,20.010000,0.081000,-0.093000,1.041000,-3.990000,-3.080000,0.560000,-3.241000,0.000000,3.908000,-6.442000,0.308000,103.000000,90.000000
252,15411.000,20.004999,0.063000,-0.105000,1.008000,2.380000,-3.640000,-0.700000,-3.367000,0.000000,3.914000,-6.757000,0.364000,103.000000,90.000000
253,15431.000,20.014999,0.076000,-0.088000,0.971000,3.920000,-2.170000,-0.280000,-3.322000,0.000000,3.915000,-6.683000,0.217000,103.000000,90.000000
254,15451.000,20.000999,0.075000,-0.066000,0.994000,0.490000,-1.470000,-0.210000,-3.086000,0.000000,3.895000,-6.178000,0.147000,103.000000,90.000000
255,15471.000,20.007999,0.071000,-0.099000,1.023000,-5.530000,-3.290000,0.840000,-3.368000,0.000000,3.931000,-6.681000,0.329000,103.000000,90.000000
256,15491.000,20.000999,0.071000,-0.116000,0.998000,1.890000,-2.800000,-0.630000,-3.551000,0.000000,3.940000,-7.120000,0.280000,103.000000,90.000000
257,15511.000,20.014999,0.070000,-0.091000,0.982000,5.250000,-2.100000,0.070000,-3.434000,0.000000,3.945000,-6.920000,0.210000,103.000000,90.000000
258,15530.000,20.013000,0.067000,-0.070000,0.989000,3.150000,-2.450000,-0.280000,-3.153000,0.000000,3.928000,-6.337000,0.245000,103.000000,90.000000
259,15550.000,20.010000,0.080000,-0.069000,1.014000,-4.480000,-3.080000,0.140000,-3.021000,0.000000,3.919000,-5.996000,0.308000,102.000000,90.000000
260,15570.000,20.007000,0.066000,-0.113000,1.013000,-0.630000,-3.710000,-0.350000,-3.244000,0.000000,3.934000,-6.482000,0.371000,103.000000,90.000000
261,15590.000,20.007999,0.068000,-0.094000,0.981000,6.090000,-2.030000,0.560000,-3.286000,0.000000,3.962000,-6.634000,0.203000,103.000000,90.000000
262,15610.000,20.042999,0.071000,-0.076000,0.940000,1.890000,-1.750000,-0.140000,-3.024000,0.000000,3.945000,-6.067000,0.175000,103.000000,90.000000
263,15630.000,20.003000,0.079000,-0.077000,1.018000,-3.430000,-2.940000,0.210000,-2.869000,0.000000,3.937000,-5.704000,0.294000,102.000000,90.000000
264,15649.000,20.011999,0.071000,-0.094000,0.994000,0.140000,-2.660000,17.850000,-3.100000,0.000000,4.314000,-6.202000,0.266000,103.000000,90.000000
265,15669.000,20.000999,0.071000,-0.075000,0.978000,5.880000,-2.310000,-0.700000,-2.765000,0.000000,4.288000,-5.589000,0.231000,102.000000,90.000000
266,15689.000,20.009001,0.074000,-0.070000,1.001000,2.450000,-2.170000,0.280000,-2.490000,0.000000,4.280000,-5.005000,0.217000,102.000000,90.000000
267,15709.000,20.007999,0.078000,-0.086000,1.009000,-4.690000,-2.660000,0.210000,-2.809000,0.000000,4.305000,-5.571000,0.266000,102.000000,90.000000
268,15729.000,20.004000,0.080000,-0.154000,0.975000,-3.010000,-3.430000,-0.770000,-3.097000,0.000000,4.313000,-6.164000,0.343000,103.000000,90.000000
269,15749.000,20.000999,0.075000,-0.110000,0.981000,5.950000,-2.170000,-0.140000,-3.206000,0.000000,4.332000,-6.472000,0.217000,103.000000,90.000000
270,15769.000,20.006001,0.067000,-0.062000,1.001000,5.040000,-2.030000,-0.910000,-2.898000,0.000000,4.301000,-5.846000,0.203000,102.000000,90.000000
271,15788.000,20.016001,0.072000,-0.061000,1.014000,-2.660000,-2.730000,0.000000,-2.733000,0.000000,4.289000,-5.440000,0.273000,102.000000,90.000000
272,15808.000,20.013000,0.073000,-0.100000,0.992000,-5.110000,-3.570000,0.070000,-3.061000,0.000000,4.313000,-6.071000,0.357000,103.000000,90.000000
273,15828.000,20.004000,0.063000,-0.104000,0.975000,3.010000,-1.820000,-0.140000,-3.197000,0.000000,4.329000,-6.423000,0.182000,103.000000,90.000000
274,15848.000,20.009001,0.063000,-0.078000,1.011000,5.810000,-1.890000,0.000000,-2.950000,0.000000,4.322000,-5.957000,0.189000,102.000000,90.000000
275,15868.000,20.011999,0.076000,-0.069000,1.002000,-1.120000,-2.590000,0.490000,-2.745000,0.000000,4.320000,-5.478000,0.259000,102.000000,90.000000
src_seq,t_ms,dt_ms,ax,ay,az,gx,gy,gz,roll,pitch,yaw,pid_roll,pid_pitch,sv1,sv3
276,15888.000,20.014000,0.076000,-0.099000,1.028000,-4.060000,-3.500000,0.070000,-3.055000,0.000000,4.344000,-6.070000,0.350000,103.000000,90.000000
277,15908.000,20.011000,0.065000,-0.100000,0.985000,3.290000,-2.730000,-0.910000,-3.181000,0.000000,4.345000,-6.394000,0.273000,103.000000,90.000000
278,15927.000,20.003000,0.066000,-0.067000,0.955000,6.580000,-1.960000,-17.920000,-2.807000,0.000000,3.974000,-5.680000,0.196000,102.000000,90.000000
281,15987.000,20.010000,0.074000,-0.143000,0.996000,-1.050000,-3.850000,-1.540000,-3.189000,0.000000,4.004000,-6.368000,0.385000,103.000000,90.000000
282,16007.000,20.010000,0.066000,-0.096000,0.932000,7.560000,-1.680000,-0.210000,-3.243000,0.000000,4.019000,-6.562000,0.168000,103.000000,90.000000
283,16027.000,20.017000,0.033000,-0.052000,0.980000,6.930000,0.350000,-0.070000,-2.960000,0.000000,4.007000,-5.990000,-0.035000,102.000000,89.000000
284,16046.000,20.011000,0.068000,-0.070000,1.068000,-4.690000,-3.500000,0.840000,-2.860000,0.000000,4.015000,-5.674000,0.350000,102.000000,90.000000
285,16066.000,20.009001,0.077000,-0.107000,1.015000,-5.250000,-5.460000,-0.980000,-3.192000,0.000000,4.021000,-6.332000,0.546000,103.000000,90.000000
286,16086.000,20.003000,0.076000,-0.098000,0.971000,3.150000,-1.820000,-0.140000,-3.355000,0.000000,4.039000,-6.741000,0.182000,103.000000,90.000000
287,16106.000,20.014000,0.076000,-0.067000,0.960000,7.700000,0.840000,-0.490000,-2.973000,0.000000,4.010000,-6.023000,-0.084000,103.000000,89.000000
288,16126.000,20.010000,0.063000,-0.072000,1.029000,-2.240000,-2.870000,0.980000,-2.871000,0.000000,4.023000,-5.719000,0.287000,102.000000,90.000000
289,16146.000,20.009001,0.062000,-0.104000,1.008000,-3.710000,-3.990000,-0.490000,-3.136000,0.000000,4.034000,-6.236000,0.399000,103.000000,90.000000
290,16166.000,20.014000,0.081000,-0.103000,0.976000,1.470000,-3.220000,-0.700000,-3.316000,0.000000,4.041000,-6.648000,0.322000,103.000000,90.000000
291,16185.000,20.010000,0.077000,-0.077000,0.987000,6.650000,-2.170000,-0.490000,-2.954000,0.000000,4.018000,-5.975000,0.217000,102.000000,90.000000
292,16205.000,20.003000,0.087000,-0.059000,1.018000,-1.470000,-2.170000,0.350000,-2.764000,0.000000,4.011000,-5.513000,0.217000,102.000000,90.000000
293,16225.000,20.004000,0.075000,-0.104000,1.000000,-2.310000,-3.220000,0.350000,-3.035000,0.000000,4.041000,-6.046000,0.322000,103.000000,90.000000
294,16245.000,20.014000,0.075000,-0.099000,0.940000,2.660000,-4.200000,0.840000,-3.212000,0.000000,4.083000,-6.452000,0.420000,103.000000,90.000000
295,16265.000,20.007999,0.065000,-0.096000,1.002000,7.490000,-1.820000,-0.140000,-3.164000,0.000000,4.092000,-6.403000,0.182000,103.000000,90.000000
296,16285.000,20.014000,0.074000,-0.063000,1.035000,1.050000,-2.590000,-0.630000,-2.921000,0.000000,4.066000,-5.853000,0.259000,102.000000,90.000000
297,16304.000,20.011000,0.077000,-0.072000,0.983000,-6.300000,-2.380000,-2.590000,-2.815000,0.000000,4.001000,-5.566000,0.238000,102.000000,90.000000
298,16324.000,20.000999,0.072000,-0.084000,0.965000,-3.570000,-0.560000,0.070000,-3.063000,0.000000,4.017000,-6.090000,0.056000,103.000000,90.000000
299,16344.000,20.016001,0.072000,-0.107000,0.960000,5.810000,-2.310000,0.910000,-3.177000,0.000000,4.056000,-6.412000,0.231000,103.000000,90.000000
300,16364.000,20.006001,0.067000,-0.090000,1.060000,8.470000,-2.590000,0.280000,-2.981000,0.000000,4.065000,-6.047000,0.259000,103.000000,90.000000
301,16384.000,20.004999,0.082000,-0.062000,0.968000,-1.260000,-2.800000,-0.770000,-2.802000,0.000000,4.039000,-5.592000,0.280000,102.000000,90.000000
302,16404.000,20.004999,0.069000,-0.085000,1.010000,-4.130000,-2.520000,-2.030000,-2.972000,0.000000,4.009000,-5.903000,0.252000,102.000000,90.000000
303,16424.000,20.010000,0.076000,-0.092000,0.962000,-4.130000,-1.820000,0.350000,-3.272000,0.000000,4.035000,-6.503000,0.182000,103.000000,90.000000
304,16443.000,20.004999,0.080000,-0.112000,0.980000,6.300000,-2.730000,-0.280000,-3.371000,0.000000,4.051000,-6.805000,0.273000,103.000000,90.000000
305,16463.000,20.004999,0.078000,-0.072000,1.018000,4.970000,-2.870000,0.840000,-3.045000,0.000000,4.056000,-6.140000,0.287000,103.000000,90.000000
306,16483.000,20.010000,0.074000,-0.088000,1.006000,0.840000,-2.310000,-0.770000,-3.140000,0.000000,4.053000,-6.288000,0.231000,103.000000,90.000000
307,16503.000,20.007999,0.060000,-0.065000,0.986000,-7.910000,-2.730000,0.000000,-3.113000,0.000000,4.044000,-6.148000,0.273000,103.000000,90.000000
308,16523.000,20.007999,0.072000,-0.126000,0.944000,-4.200000,-2.800000,-17.920000,-3.400000,0.000000,3.708000,-6.757000,0.280000,103.000000,90.000000
309,16542.000,20.004999,0.082000,-0.096000,1.011000,7.210000,-2.730000,0.000000,-3.403000,0.000000,3.724000,-6.878000,0.273000,103.000000,90.000000
310,16562.000,20.014000,0.058000,-0.080000,1.059000,4.900000,-4.900000,1.120000,-3.191000,0.000000,3.746000,-6.431000,0.490000,103.000000,90.000000
311,16582.000,20.003000,0.069000,-0.043000,1.012000,1.330000,-3.430000,-0.770000,-2.941000,0.000000,3.719000,-5.895000,0.343000,102.000000,90.000000
312,16602.000,20.013000,0.057000,-0.068000,0.962000,-6.230000,-3.010000,1.680000,-2.948000,0.000000,3.748000,-5.833000,0.301000,102.000000,90.000000
313,16622.000,20.006001,0.064000,-0.088000,0.995000,5.880000,0.980000,-0.280000,-2.918000,0.000000,3.748000,-5.895000,-0.098000,102.000000,89.000000
314,16642.000,20.016001,0.064000,-0.076000,1.022000,-0.420000,-2.450000,0.350000,-2.792000,0.000000,3.749000,-5.580000,0.245000,102.000000,90.000000
315,16662.000,20.000999,0.059000,-0.130000,1.013000,0.630000,-4.900000,-1.540000,-2.999000,0.000000,3.742000,-6.005000,0.490000,103.000000,90.000000
316,16681.000,20.007000,0.108000,-0.092000,0.947000,-1.820000,-2.800000,1.750000,-3.106000,0.000000,3.786000,-6.194000,0.280000,103.000000,90.000000
317,16701.000,20.014000,0.100000,-0.121000,0.980000,4.270000,2.100000,0.840000,-3.210000,0.000000,3.814000,-6.462000,-0.210000,103.000000,89.000000
318,16721.000,20.007000,0.076000,-0.072000,1.013000,4.060000,-0.840000,0.070000,-2.902000,0.000000,3.799000,-5.845000,0.084000,102.000000,90.000000
319,16741.000,20.000999,0.071000,-0.071000,0.990000,0.000000,-2.870000,-0.490000,-2.694000,0.000000,3.778000,-5.387000,0.287000,102.000000,90.000000
320,16761.000,20.017000,0.078000,-0.093000,0.966000,1.330000,-3.710000,0.700000,-2.890000,0.000000,3.815000,-5.793000,0.371000,102.000000,90.000000
321,16781.000,20.002001,0.074000,-0.083000,0.986000,3.010000,-4.200000,-0.490000,-2.947000,0.000000,3.821000,-5.923000,0.420000,102.000000,90.000000
322,16801.000,20.007999,0.032000,-0.097000,1.032000,3.780000,-1.260000,-1.330000,-2.924000,0.000000,3.801000,-5.886000,0.126000,102.000000,90.000000
323,16820.000,20.014999,0.001000,-0.084000,1.012000,0.280000,1.540000,-0.070000,-2.919000,0.000000,3.797000,-5.842000,-0.154000,102.000000,89.000000
324,16840.000,20.014000,-0.009000,-0.049000,0.971000,0.490000,-0.210000,0.350000,-2.823000,0.000000,3.799000,-5.651000,0.021000,102.000000,90.000000
325,16860.000,20.003000,-0.045000,-0.059000,1.003000,3.220000,-1.120000,2.030000,-2.716000,0.000000,3.838000,-5.465000,0.112000,102.000000,90.000000
326,16880.000,20.014999,0.021000,-0.097000,1.053000,3.290000,-6.440000,0.140000,-2.720000,0.000000,3.856000,-5.473000,0.644000,102.000000,90.000000
327,16900.000,20.007000,0.064000,-0.086000,0.975000,0.980000,-5.110000,0.490000,-2.898000,0.000000,3.886000,-5.807000,0.511000,102.000000,90.000000
328,16920.000,20.007999,0.037000,-0.077000,0.969000,1.820000,-0.700000,2.170000,-2.845000,0.000000,3.929000,-5.709000,0.070000,102.000000,90.000000
329,16940.000,20.014000,-0.005000,-0.125000,1.082000,3.710000,-0.140000,-1.610000,-2.876000,0.000000,3.903000,-5.789000,0.014000,102.000000,90.000000
330,16959.000,20.007999,-0.021000,-0.111000,0.965000,1.400000,-2.100000,0.630000,-2.937000,0.000000,3.924000,-5.889000,0.210000,102.000000,90.000000
331,16979.000,20.003000,-0.065000,-0.071000,0.897000,7.000000,-1.400000,-0.070000,-2.791000,0.000000,3.925000,-5.651000,0.140000,102.000000,90.000000
332,16999.000,20.014000,-0.081000,-0.066000,0.950000,8.750000,0.420000,-2.870000,-2.595000,0.000000,3.866000,-5.278000,-0.042000,102.000000,89.000000
333,17019.000,20.007999,0.054000,-0.098000,0.961000,-2.240000,-4.970000,-2.590000,-2.848000,0.000000,3.832000,-5.674000,0.497000,102.000000,90.000000
334,17039.000,20.002001,-0.037000,-0.069000,1.006000,5.180000,0.000000,-3.850000,-2.708000,0.000000,3.754000,-5.469000,0.000000,102.000000,90.000000
335,17059.000,20.003000,0.209000,-0.122000,1.097000,9.030000,-5.810000,1.400000,-2.579000,0.000000,3.793000,-5.249000,0.581000,102.000000,90.000000
336,17078.000,20.011999,0.087000,-0.115000,0.884000,-1.330000,-3.010000,-0.910000,-2.777000,0.000000,3.789000,-5.540000,0.301000,102.000000,90.000000
337,17098.000,20.003000,-0.050000,-0.063000,1.016000,-17.500000,1.400000,1.610000,-3.090000,0.000000,3.816000,-6.005000,-0.140000,103.000000,89.000000
338,17118.000,20.004999,-0.017000,-0.062000,1.036000,2.660000,-1.470000,-16.940001,-2.938000,0.000000,3.476000,-5.902000,0.147000,102.000000,90.000000
339,17138.000,20.009001,0.070000,-0.090000,0.947000,-3.780000,-0.490000,-0.490000,-3.107000,0.000000,3.472000,-6.176000,0.049000,103.000000,90.000000
340,17158.000,20.011999,0.037000,-0.080000,1.118000,4.200000,1.330000,0.000000,-2.881000,0.000000,3.463000,-5.804000,-0.133000,102.000000,89.000000
341,17178.000,20.006001,0.023000,-0.120000,0.974000,-2.940000,2.100000,1.610000,-3.138000,0.000000,3.501000,-6.247000,-0.210000,103.000000,89.000000
342,17197.000,20.011999,0.083000,-0.118000,0.975000,0.420000,2.170000,2.450000,-3.281000,0.000000,3.553000,-6.567000,-0.217000,103.000000,89.000000
343,17217.000,20.007000,0.006000,-0.132000,0.905000,0.280000,2.870000,2.660000,-3.463000,0.000000,3.609000,-6.929000,-0.287000,103.000000,89.000000
344,17237.000,20.002001,-0.114000,-0.086000,0.954000,-17.920000,8.890000,5.180000,-3.823000,0.000000,3.695000,-7.466000,-0.889000,103.000000,89.000000
345,17257.000,20.009001,0.035000,-0.085000,1.077000,6.300000,4.340000,1.750000,-3.474000,0.000000,3.713000,-7.011000,-0.434000,103.000000,89.000000
346,17277.000,20.014000,0.026000,-0.049000,0.912000,-4.620000,4.270000,0.630000,-3.341000,0.000000,3.710000,-6.635000,-0.427000,103.000000,89.000000
347,17297.000,20.004000,0.066000,-0.092000,1.038000,-0.280000,0.280000,3.500000,-3.340000,0.000000,3.779000,-6.677000,-0.028000,103.000000,89.000000
348,17316.000,20.011000,-0.012000,-0.092000,0.924000,-0.700000,3.080000,3.990000,-3.403000,0.000000,3.855000,-6.798000,-0.308000,103.000000,89.000000
349,17336.000,20.014000,0.117000,-0.002000,1.061000,9.800000,0.070000,2.870000,-3.038000,0.000000,3.906000,-6.174000,-0.007000,103.000000,89.000000
350,17356.000,20.011000,0.026000,-0.094000,0.935000,-2.660000,0.000000,8.260000,-3.314000,0.000000,4.078000,-6.601000,0.000000,103.000000,90.000000
351,17376.000,20.007999,0.056000,-0.012000,0.935000,-0.490000,15.120000,3.920000,-3.111000,0.000000,4.123000,-6.216000,-1.512000,103.000000,89.000000
352,17396.000,20.007999,-0.027000,-0.132000,1.023000,-3.220000,1.050000,2.310000,-3.320000,0.000000,4.171000,-6.607000,-0.105000,103.000000,89.000000
353,17416.000,20.007000,-0.010000,-0.100000,0.926000,0.490000,-1.890000,4.200000,-3.419000,0.000000,4.260000,-6.842000,0.189000,103.000000,90.000000
354,17436.000,20.004999,0.061000,-0.064000,0.974000,6.930000,-5.320000,0.840000,-3.159000,0.000000,4.283000,-6.387000,0.532000,103.000000,90.000000
355,17455.000,20.003000,-0.003000,-0.057000,0.906000,6.440000,-1.400000,2.240000,-2.890000,0.000000,4.327000,-5.845000,0.140000,102.000000,90.000000
356,17475.000,20.011999,0.103000,-0.129000,1.196000,-0.560000,-2.170000,-0.070000,-2.990000,0.000000,4.331000,-5.974000,0.217000,102.000000,90.000000
357,17495.000,20.004000,-0.082000,-0.083000,1.144000,-1.120000,-0.490000,-1.050000,-2.986000,0.000000,4.311000,-5.961000,0.049000,102.000000,90.000000
358,17515.000,20.017000,0.058000,-0.097000,0.954000,6.930000,-4.900000,-0.560000,-2.947000,0.000000,4.310000,-5.964000,0.490000,102.000000,90.000000
359,17535.000,20.011999,0.114000,-0.073000,1.023000,11.550000,-2.590000,-2.310000,-2.683000,0.000000,4.267000,-5.482000,0.259000,102.000000,90.000000
360,17555.000,20.004000,0.162000,-0.050000,1.117000,12.810000,-2.590000,-2.100000,-2.359000,0.000000,4.226000,-4.847000,0.259000,102.000000,90.000000
361,17574.000,20.010000,-0.010000,-0.052000,0.958000,7.140000,-2.100000,-2.100000,-2.135000,0.000000,4.184000,-4.341000,0.210000,102.000000,90.000000
362,17594.000,20.003000,-0.060000,-0.050000,0.980000,12.250000,-3.570000,-1.960000,-1.848000,0.000000,4.149000,-3.819000,0.357000,101.000000,90.000000
363,17614.000,20.004000,0.066000,-0.076000,0.965000,0.630000,-2.240000,-1.890000,-1.925000,0.000000,4.117000,-3.857000,0.224000,101.000000,90.000000
364,17634.000,20.011999,0.278000,-0.056000,1.155000,8.540000,-3.920000,-3.640000,-1.733000,0.000000,4.048000,-3.552000,0.392000,101.000000,90.000000
365,17654.000,20.016001,0.021000,-0.119000,0.935000,14.210000,-2.310000,-1.330000,-1.666000,0.000000,4.034000,-3.474000,0.231000,101.000000,90.000000
366,17674.000,20.013000,0.004000,-0.063000,1.078000,10.640000,-1.540000,-2.100000,-1.441000,0.000000,3.994000,-2.989000,0.154000,101.000000,90.000000
367,17693.000,20.011999,0.020000,-0.070000,0.944000,7.350000,-1.120000,-17.290001,-1.437000,0.000000,3.656000,-2.948000,0.112000,101.000000,90.000000
368,17713.000,20.004000,0.095000,-0.009000,0.955000,12.740000,-3.010000,-0.210000,-1.043000,0.000000,3.649000,-2.213000,0.301000,101.000000,90.000000
369,17733.000,20.004999,-0.036000,-0.037000,1.004000,24.500000,0.980000,-0.770000,-0.514000,0.000000,3.632000,-1.274000,-0.098000,100.000000,89.000000
370,17753.000,20.004999,-0.081000,-0.058000,0.982000,21.629999,-0.490000,-2.240000,-0.115000,0.000000,3.590000,-0.446000,0.049000,100.000000,90.000000
371,17773.000,20.032000,0.114000,-0.046000,0.971000,19.040001,-0.840000,0.070000,0.227000,0.000000,3.592000,0.263000,0.084000,99.000000,90.000000
372,17793.000,20.007999,0.080000,-0.088000,0.947000,0.070000,-16.590000,0.140000,0.041000,0.000000,3.612000,0.081000,1.659000,99.000000,90.000000
373,17813.000,20.000999,0.029000,-0.043000,0.994000,25.340000,15.610000,-1.260000,0.411000,0.000000,3.585000,0.569000,-1.561000,99.000000,89.000000
374,17832.000,20.007999,0.000000,-0.099000,0.751000,5.740000,0.490000,2.100000,0.308000,0.000000,3.635000,0.559000,-0.049000,99.000000,89.000000
375,17852.000,20.006001,-0.028000,-0.157000,1.195000,2.940000,-15.610000,3.150000,0.165000,0.000000,3.714000,0.300000,1.561000,99.000000,90.000000
376,17872.000,20.011999,0.291000,-0.219000,0.677000,10.220000,-15.050000,-6.930000,0.236000,0.000000,3.589000,0.371000,1.505000,99.000000,90.000000
377,17892.000,20.028999,-0.124000,-0.148000,1.004000,9.030000,5.040000,6.230000,0.279000,0.000000,3.717000,0.469000,-0.504000,99.000000,89.000000
378,17912.000,20.013000,-0.068000,-0.088000,1.098000,13.230000,1.120000,-9.520000,0.447000,0.000000,3.531000,0.763000,-0.112000,99.000000,89.000000
379,17932.000,20.016001,-0.085000,0.181000,0.693000,24.990000,-13.580000,4.130000,1.143000,0.000000,3.611000,2.037000,1.358000,98.000000,90.000000
380,17951.000,20.017000,0.040000,0.185000,0.923000,11.830000,-16.730000,-14.140000,1.622000,0.000000,3.321000,3.125000,1.673000,98.000000,90.000000
381,17971.000,20.004000,0.264000,-0.187000,1.118000,10.080000,6.160000,-1.260000,1.674000,0.000000,3.302000,3.247000,-0.616000,98.000000,89.000000
382,17991.000,20.004999,-0.087000,0.105000,1.103000,-1.400000,5.040000,-5.390000,1.790000,0.000000,3.188000,3.595000,-0.504000,98.000000,89.000000
383,18011.000,20.007000,-0.075000,0.082000,1.143000,8.610000,-5.180000,0.210000,2.088000,0.000000,3.187000,4.091000,0.518000,97.000000,90.000000
384,18031.000,20.017000,0.255000,0.062000,1.464000,19.110001,-0.420000,2.030000,2.531000,0.000000,3.224000,4.872000,0.042000,97.000000,90.000000
385,18051.000,20.007000,0.142000,-0.009000,1.040000,13.160000,-3.640000,-9.590000,2.751000,0.000000,3.033000,5.371000,0.364000,97.000000,90.000000
386,18071.000,20.004000,0.144000,0.071000,0.626000,13.230000,-17.639999,8.540000,3.116000,0.000000,3.191000,6.099000,1.764000,96.000000,90.000000
387,18090.000,20.004999,0.051000,-0.106000,1.235000,-10.850000,-15.470000,-9.170000,2.685000,0.000000,3.014000,5.478000,1.547000,97.000000,90.000000
388,18110.000,20.003000,0.056000,0.032000,0.808000,20.650000,12.530000,1.750000,3.322000,0.000000,3.040000,6.438000,-1.253000,96.000000,89.000000
389,18130.000,20.013000,0.120000,0.062000,1.159000,18.900000,-10.920000,8.610000,3.814000,0.000000,3.197000,7.439000,1.092000,96.000000,90.000000
390,18150.000,20.007000,-0.034000,-0.156000,0.922000,13.440000,-8.680000,0.070000,3.880000,0.000000,3.206000,7.625000,0.868000,96.000000,90.000000
391,18170.000,20.002001,0.123000,-0.042000,0.866000,1.260000,-14.420000,0.630000,3.730000,0.000000,3.221000,7.447000,1.442000,96.000000,90.000000
392,18190.000,20.011999,0.042000,0.042000,0.914000,4.900000,-2.730000,1.330000,3.906000,0.000000,3.240000,7.763000,0.273000,96.000000,90.000000
393,18209.000,20.004000,0.079000,-0.024000,1.057000,-9.380000,0.840000,-3.010000,3.493000,0.000000,3.197000,7.080000,-0.084000,96.000000,89.000000
394,18229.000,20.004999,0.076000,0.024000,0.927000,-5.670000,-0.840000,-5.040000,3.281000,0.000000,3.104000,6.619000,0.084000,96.000000,90.000000
395,18249.000,20.009001,0.124000,0.094000,1.169000,2.100000,-3.640000,-0.350000,3.530000,0.000000,3.079000,7.039000,0.364000,96.000000,90.000000
396,18269.000,20.004999,-0.051000,-0.034000,1.015000,-8.470000,1.540000,-5.040000,3.269000,0.000000,2.986000,6.622000,-0.154000,96.000000,89.000000
397,18289.000,20.016001,0.012000,0.122000,0.948000,8.470000,-0.770000,3.080000,3.628000,0.000000,3.033000,7.171000,0.077000,96.000000,90.000000
398,18309.000,20.000999,0.028000,0.037000,0.928000,-0.560000,-8.190000,1.330000,3.655000,0.000000,3.051000,7.315000,0.819000,96.000000,90.000000
399,18329.000,20.004999,-0.064000,0.001000,0.829000,-1.260000,-2.870000,-2.730000,3.587000,0.000000,2.998000,7.187000,0.287000,96.000000,90.000000
400,18348.000,20.004999,0.081000,0.041000,1.102000,9.100000,-2.660000,-0.560000,3.992000,0.000000,2.969000,7.893000,0.266000,96.000000,90.000000
401,18368.000,20.010000,0.189000,-0.013000,0.978000,1.750000,-1.890000,3.080000,3.931000,0.000000,3.036000,7.845000,0.189000,96.000000,90.000000
402,18388.000,20.003000,0.052000,0.031000,1.050000,-14.420000,-15.610000,1.190000,3.579000,0.000000,3.053000,7.302000,1.561000,96.000000,90.000000
403,18408.000,20.016001,-0.095000,0.053000,0.937000,1.750000,0.000000,2.450000,3.642000,0.000000,3.100000,7.267000,0.000000,96.000000,90.000000
404,18428.000,20.014999,-0.103000,0.096000,0.930000,-2.800000,2.100000,0.350000,3.668000,0.000000,3.102000,7.364000,-0.210000,96.000000,89.000000
405,18448.000,20.014999,0.095000,0.026000,1.001000,5.110000,0.140000,-2.730000,3.713000,0.000000,3.052000,7.375000,-0.014000,96.000000,89.000000
406,18467.000,20.017000,0.054000,-0.030000,0.954000,0.070000,-3.920000,-0.490000,3.494000,0.000000,3.056000,6.987000,0.392000,96.000000,90.000000
407,18487.000,20.011999,-0.052000,0.056000,1.012000,2.240000,0.840000,1.820000,3.583000,0.000000,3.090000,7.143000,-0.084000,96.000000,89.000000
408,18507.000,20.014999,-0.077000,0.078000,0.993000,14.210000,0.700000,2.310000,3.934000,0.000000,3.132000,7.726000,-0.070000,96.000000,89.000000
409,18527.000,20.004999,-0.067000,0.041000,0.987000,-14.560000,-4.830000,0.840000,3.649000,0.000000,3.145000,7.444000,0.483000,96.000000,90.000000
410,18547.000,20.004999,0.057000,0.026000,1.003000,6.790000,-5.110000,-16.799999,3.669000,0.000000,2.814000,7.270000,0.511000,96.000000,90.000000
411,18567.000,20.000999,0.089000,-0.020000,0.936000,4.060000,-4.760000,2.100000,3.550000,0.000000,2.865000,7.060000,0.476000,96.000000,90.000000
412,18586.000,20.007999,-0.011000,-0.028000,1.061000,-2.660000,-8.330000,0.840000,3.360000,0.000000,2.886000,6.746000,0.833000,96.000000,90.000000
413,18606.000,20.011000,0.069000,0.086000,0.952000,2.380000,-9.100000,3.430000,3.632000,0.000000,2.934000,7.240000,0.910000,96.000000,90.000000
414,18626.000,20.007999,-0.020000,0.054000,1.032000,4.550000,-10.080000,-0.070000,3.773000,0.000000,2.923000,7.501000,1.008000,96.000000,90.000000
415,18646.000,20.007999,0.050000,0.010000,0.880000,15.750000,-2.380000,-0.980000,3.892000,0.000000,2.915000,7.626000,0.238000,96.000000,90.000000
416,18666.000,20.003000,0.052000,0.039000,0.962000,2.660000,-8.470000,0.770000,3.999000,0.000000,2.921000,7.971000,0.847000,96.000000,90.000000
417,18686.000,20.007999,0.038000,0.068000,1.049000,1.400000,-9.590000,0.630000,4.175000,0.000000,2.916000,8.335000,0.959000,95.000000,90.000000
418,18705.000,20.016001,0.005000,0.027000,0.951000,0.840000,-4.340000,1.260000,4.145000,0.000000,2.941000,8.281000,0.434000,95.000000,90.000000
419,18725.000,20.013000,0.055000,0.052000,1.001000,4.900000,-3.990000,-0.350000,4.407000,0.000000,2.920000,8.766000,0.399000,95.000000,90.000000
420,18745.000,20.011000,0.169000,0.056000,0.996000,1.330000,-5.390000,3.500000,4.453000,0.000000,2.983000,8.892000,0.539000,95.000000,90.000000
421,18765.000,20.006001,0.101000,0.016000,0.883000,-0.280000,-1.120000,2.030000,4.320000,0.000000,3.032000,8.644000,0.112000,95.000000,90.000000
422,18785.000,20.010000,-0.018000,0.004000,0.999000,-17.290001,-0.700000,2.940000,3.878000,0.000000,3.096000,7.929000,0.070000,96.000000,90.000000
423,18805.000,20.004000,0.025000,-0.003000,1.033000,3.850000,-0.700000,-17.639999,3.832000,0.000000,2.753000,7.626000,0.070000,96.000000,90.000000
424,18824.000,20.014000,0.103000,0.034000,0.947000,2.030000,-4.270000,-2.100000,3.880000,0.000000,2.707000,7.739000,0.427000,96.000000,90.000000
425,18844.000,20.009001,0.140000,0.021000,0.976000,0.980000,-5.390000,2.030000,3.850000,0.000000,2.747000,7.690000,0.539000,96.000000,90.000000
426,18864.000,20.004000,-0.075000,0.114000,1.090000,3.640000,-4.900000,-2.310000,4.023000,0.000000,2.690000,8.010000,0.490000,95.000000,90.000000
427,18884.000,20.011000,-0.014000,0.088000,1.038000,6.440000,-9.590000,-0.910000,4.259000,0.000000,2.656000,8.453000,0.959000,95.000000,90.000000
428,18904.000,20.007999,0.088000,0.035000,0.923000,1.120000,-4.900000,-1.470000,4.224000,0.000000,2.627000,8.436000,0.490000,95.000000,90.000000
429,18924.000,20.007999,0.167000,0.091000,0.869000,2.450000,-3.780000,2.590000,4.382000,0.000000,2.666000,8.740000,0.378000,95.000000,90.000000
430,18943.000,20.011999,0.030000,0.077000,1.011000,2.170000,-1.190000,2.380000,4.531000,0.000000,2.704000,9.040000,0.119000,95.000000,90.000000
431,18963.000,20.014999,0.029000,0.049000,0.983000,5.460000,-3.220000,1.470000,4.645000,0.000000,2.730000,9.235000,0.322000,95.000000,90.000000
432,18983.000,20.000999,-0.019000,-0.016000,0.979000,-0.420000,-7.490000,-5.180000,4.519000,0.000000,2.629000,9.041000,0.749000,95.000000,90.000000
433,19003.000,20.010000,0.118000,0.106000,0.965000,-2.590000,-7.070000,0.280000,4.657000,0.000000,2.612000,9.340000,0.707000,95.000000,90.000000
434,19023.000,20.000999,0.114000,0.072000,1.024000,5.250000,-4.410000,-1.400000,4.905000,0.000000,2.567000,9.758000,0.441000,95.000000,90.000000
435,19042.000,20.014000,0.031000,0.031000,1.062000,2.310000,-7.140000,-3.990000,4.872000,0.000000,2.487000,9.721000,0.714000,95.000000,90.000000
436,19062.000,20.002001,-0.057000,0.037000,0.991000,6.230000,-6.090000,-6.580000,4.983000,0.000000,2.351000,9.904000,0.609000,95.000000,90.000000
437,19082.000,20.006001,0.134000,0.077000,0.971000,4.620000,-1.330000,-1.540000,5.174000,0.000000,2.310000,10.302000,0.133000,94.000000,90.000000
438,19102.000,20.017000,0.158000,-0.004000,1.048000,1.820000,-1.610000,-0.210000,5.046000,0.000000,2.319000,10.073000,0.161000,94.000000,90.000000
439,19122.000,20.000999,0.048000,0.111000,1.008000,-3.080000,-1.050000,3.290000,5.151000,0.000000,2.368000,10.332000,0.105000,94.000000,90.000000
440,19142.000,20.017000,-0.029000,0.023000,0.950000,14.420000,-2.590000,2.870000,5.373000,0.000000,2.428000,10.601000,0.259000,94.000000,90.000000
441,19162.000,20.011000,0.095000,0.027000,0.981000,12.740000,-5.880000,-0.630000,5.405000,0.000000,2.428000,10.682000,0.588000,94.000000,90.000000
442,19181.000,20.011000,0.135000,0.066000,1.021000,-3.780000,-5.390000,0.000000,5.342000,0.000000,2.420000,10.721000,0.539000,94.000000,90.000000
443,19201.000,20.007000,0.048000,0.032000,0.964000,-5.320000,0.630000,-1.610000,5.119000,0.000000,2.400000,10.292000,-0.063000,94.000000,89.000000
444,19221.000,20.014000,0.079000,0.064000,0.973000,-4.550000,-3.080000,-0.140000,5.148000,0.000000,2.382000,10.341000,0.308000,94.000000,90.000000
445,19241.000,20.013000,-0.039000,0.062000,0.993000,-3.500000,-5.040000,-2.800000,5.090000,0.000000,2.320000,10.214000,0.504000,94.000000,90.000000
446,19261.000,20.004999,0.033000,0.038000,1.067000,-2.940000,-3.710000,-3.290000,4.957000,0.000000,2.256000,9.942000,0.371000,95.000000,90.000000
447,19281.000,20.010000,0.089000,0.091000,0.995000,-5.390000,-1.680000,1.400000,5.076000,0.000000,2.263000,10.205000,0.168000,94.000000,90.000000
448,19300.000,20.014999,0.189000,0.040000,1.034000,-6.510000,-0.630000,-16.730000,4.931000,0.000000,1.931000,9.927000,0.063000,95.000000,90.000000
449,19320.000,20.000999,0.048000,0.042000,1.073000,-6.300000,-0.210000,-1.120000,4.735000,0.000000,1.914000,9.532000,0.021000,95.000000,90.000000
450,19340.000,20.014999,-0.038000,0.031000,0.968000,-2.100000,-3.220000,-0.560000,4.660000,0.000000,1.903000,9.341000,0.322000,95.000000,90.000000
451,19360.000,20.009001,0.035000,0.028000,0.993000,-5.390000,-0.350000,0.700000,4.458000,0.000000,1.924000,8.970000,0.035000,95.000000,90.000000
452,19380.000,20.011999,0.135000,0.028000,0.994000,-9.100000,-1.750000,2.100000,4.198000,0.000000,1.971000,8.487000,0.175000,95.000000,90.000000
453,19399.000,20.010000,0.122000,-0.028000,1.054000,-7.000000,-0.420000,4.270000,3.840000,0.000000,2.075000,7.749000,0.042000,96.000000,90.000000
454,19419.000,20.007999,-0.048000,0.067000,1.054000,-2.170000,-3.220000,2.030000,3.839000,0.000000,2.109000,7.700000,0.322000,96.000000,90.000000
455,19439.000,20.007000,-0.016000,-0.004000,0.912000,-7.000000,-1.750000,0.210000,3.616000,0.000000,2.119000,7.301000,0.175000,96.000000,90.000000
456,19459.000,20.007999,0.142000,-0.015000,1.015000,-1.120000,-2.870000,0.910000,3.448000,0.000000,2.147000,6.907000,0.287000,96.000000,90.000000
457,19479.000,20.000999,0.132000,0.009000,0.945000,-5.320000,-3.220000,-0.560000,3.265000,0.000000,2.141000,6.583000,0.322000,96.000000,90.000000
458,19499.000,20.004000,0.093000,0.034000,0.953000,-4.690000,-2.240000,-1.260000,3.368000,0.000000,2.097000,6.783000,0.224000,96.000000,90.000000
459,19519.000,20.014999,0.006000,-0.025000,1.003000,2.730000,-3.640000,-4.830000,3.313000,0.000000,2.009000,6.599000,0.364000,96.000000,90.000000
460,19538.000,20.011999,-0.014000,0.060000,0.999000,4.480000,-4.130000,-5.040000,3.481000,0.000000,1.900000,6.917000,0.413000,96.000000,90.000000
461,19558.000,20.014999,0.229000,0.093000,1.022000,5.950000,-4.340000,-1.680000,3.698000,0.000000,1.854000,7.336000,0.434000,96.000000,90.000000
462,19578.000,20.011999,0.155000,0.041000,0.934000,0.070000,-2.450000,-3.150000,3.741000,0.000000,1.786000,7.481000,0.245000,96.000000,90.000000
463,19598.000,20.000999,-0.084000,0.107000,1.005000,-0.630000,-5.950000,-3.570000,3.821000,0.000000,1.702000,7.648000,0.595000,96.000000,90.000000
464,19618.000,20.010000,0.009000,0.091000,0.960000,6.440000,-5.040000,-5.460000,4.089000,0.000000,1.577000,8.113000,0.504000,95.000000,90.000000
465,19638.000,20.006001,0.141000,-0.013000,1.005000,8.400000,-4.900000,-2.100000,4.085000,0.000000,1.547000,8.085000,0.490000,95.000000,90.000000
466,19657.000,20.017000,0.124000,0.035000,1.013000,0.770000,-6.230000,-1.050000,4.052000,0.000000,1.526000,8.096000,0.623000,95.000000,90.000000
467,19677.000,20.006001,-0.035000,0.091000,1.027000,3.220000,-6.930000,0.910000,4.192000,0.000000,1.531000,8.352000,0.693000,95.000000,90.000000
468,19697.000,20.017000,0.027000,0.015000,1.074000,6.300000,-6.860000,0.630000,4.242000,0.000000,1.546000,8.420000,0.686000,95.000000,90.000000
469,19717.000,20.010000,0.135000,-0.018000,0.893000,3.710000,-7.070000,0.350000,4.132000,0.000000,1.566000,8.227000,0.707000,95.000000,90.000000
470,19737.000,20.004999,0.073000,0.016000,0.955000,1.260000,-7.630000,1.890000,4.017000,0.000000,1.612000,8.022000,0.763000,95.000000,90.000000
471,19757.000,20.016001,-0.015000,0.000000,1.041000,3.780000,-3.360000,0.210000,4.024000,0.000000,1.621000,8.009000,0.336000,95.000000,90.000000
472,19776.000,20.016001,0.002000,0.020000,0.962000,5.460000,-2.730000,-0.560000,4.095000,0.000000,1.612000,8.136000,0.273000,95.000000,90.000000
473,19796.000,20.007999,0.109000,-0.059000,1.082000,4.620000,-3.990000,-2.380000,3.963000,0.000000,1.585000,7.879000,0.399000,96.000000,90.000000
474,19816.000,20.002001,0.188000,-0.008000,0.942000,6.860000,-6.020000,-1.680000,4.004000,0.000000,1.557000,7.940000,0.602000,96.000000,90.000000
475,19836.000,20.003000,0.119000,0.001000,0.774000,-1.680000,-3.500000,0.490000,3.821000,0.000000,1.580000,7.659000,0.350000,96.000000,90.000000
476,19856.000,20.009001,0.025000,-0.107000,1.054000,22.120001,2.170000,-5.530000,4.083000,0.000000,1.493000,7.944000,-0.217000,96.000000,89.000000
477,19876.000,20.011999,0.007000,0.180000,0.865000,-9.170000,-7.280000,-2.800000,4.103000,0.000000,1.409000,8.298000,0.728000,95.000000,90.000000
478,19895.000,20.004999,0.254000,0.155000,1.018000,2.940000,6.580000,-3.920000,4.315000,0.000000,1.319000,8.600000,-0.658000,95.000000,89.000000
479,19915.000,20.013000,0.090000,0.116000,0.904000,-9.310000,-0.980000,2.100000,4.352000,0.000000,1.335000,8.797000,0.098000,95.000000,90.000000
480,19935.000,20.006001,-0.024000,0.081000,1.262000,3.430000,-2.660000,-2.030000,4.460000,0.000000,1.289000,8.886000,0.266000,95.000000,90.000000
481,19955.000,20.014999,0.061000,0.065000,0.948000,7.280000,-5.880000,-1.680000,4.713000,0.000000,1.238000,9.354000,0.588000,95.000000,90.000000
482,19975.000,20.003000,0.198000,0.026000,1.079000,3.710000,-5.110000,0.280000,4.712000,0.000000,1.247000,9.386000,0.511000,95.000000,90.000000
483,19995.000,20.016001,0.116000,0.086000,0.998000,1.610000,1.610000,-2.100000,4.978000,0.000000,1.181000,9.939000,-0.161000,95.000000,89.000000
484,20014.000,20.011999,0.126000,0.105000,0.946000,-2.310000,-5.250000,2.310000,5.142000,0.000000,1.197000,10.307000,0.525000,94.000000,90.000000
485,20034.000,20.003000,-0.026000,0.051000,1.061000,2.520000,-1.750000,0.770000,5.174000,0.000000,1.212000,10.323000,0.175000,94.000000,90.000000
486,20054.000,20.006001,-0.027000,0.044000,0.979000,-0.140000,1.190000,-1.890000,5.152000,0.000000,1.178000,10.305000,-0.119000,94.000000,89.000000
487,20074.000,20.011999,0.175000,0.015000,1.037000,-0.560000,-2.170000,3.570000,4.998000,0.000000,1.262000,10.001000,0.217000,94.000000,90.000000
488,20094.000,20.010000,0.176000,-0.028000,0.983000,-2.310000,-3.430000,3.010000,4.764000,0.000000,1.339000,9.552000,0.343000,95.000000,90.000000
489,20114.000,20.009001,-0.063000,0.074000,0.998000,-0.140000,-1.890000,1.820000,4.786000,0.000000,1.371000,9.574000,0.189000,95.000000,90.000000
490,20134.000,20.009001,0.009000,-0.031000,1.045000,2.030000,0.910000,-2.520000,4.690000,0.000000,1.337000,9.361000,-0.091000,95.000000,89.000000
491,20153.000,20.007999,0.168000,-0.019000,0.975000,1.540000,-6.160000,-2.730000,4.557000,0.000000,1.294000,9.098000,0.616000,95.000000,90.000000
492,20173.000,20.013000,0.138000,0.058000,0.996000,1.820000,-9.310000,-1.680000,4.680000,0.000000,1.242000,9.341000,0.931000,95.000000,90.000000
493,20193.000,20.013000,0.074000,0.108000,0.970000,-2.030000,-3.920000,-4.270000,4.836000,0.000000,1.130000,9.693000,0.392000,95.000000,90.000000
494,20213.000,20.000999,-0.041000,0.090000,0.970000,-0.210000,-3.290000,-2.660000,4.894000,0.000000,1.066000,9.789000,0.329000,95.000000,90.000000
495,20233.000,20.010000,0.208000,0.043000,0.992000,2.450000,-6.790000,-1.540000,4.921000,0.000000,1.031000,9.817000,0.679000,95.000000,90.000000
496,20253.000,20.009001,0.209000,0.043000,1.047000,-0.420000,-8.960000,-0.910000,4.875000,0.000000,1.008000,9.754000,0.896000,95.000000,90.000000
497,20272.000,20.000999,0.073000,0.110000,0.974000,-4.550000,-1.960000,1.330000,4.949000,0.000000,1.011000,9.944000,0.196000,95.000000,90.000000
498,20292.000,20.004000,-0.028000,0.013000,1.024000,6.160000,0.420000,0.140000,5.012000,0.000000,1.022000,9.962000,-0.042000,95.000000,89.000000
499,20312.000,20.007999,0.071000,0.017000,0.944000,-0.840000,-4.060000,-0.630000,4.857000,0.000000,1.022000,9.722000,0.406000,95.000000,90.000000
500,20332.000,20.016001,0.067000,0.024000,0.994000,-3.920000,-8.190000,3.220000,4.662000,0.000000,1.091000,9.364000,0.819000,95.000000,90.000000
501,20352.000,20.017000,0.099000,0.023000,1.032000,0.070000,-2.100000,4.410000,4.483000,0.000000,1.198000,8.966000,0.210000,95.000000,90.000000
502,20372.000,20.014000,-0.009000,-0.023000,1.002000,0.840000,1.610000,1.050000,4.388000,0.000000,1.234000,8.767000,-0.161000,95.000000,89.000000
503,20391.000,20.017000,0.066000,0.010000,1.027000,-1.470000,-3.640000,-2.800000,4.235000,0.000000,1.189000,8.485000,0.364000,95.000000,90.000000
504,20411.000,20.000999,0.166000,-0.020000,1.063000,4.410000,-6.370000,1.120000,4.131000,0.000000,1.228000,8.218000,0.637000,95.000000,90.000000
505,20431.000,20.007999,0.119000,-0.002000,0.949000,-2.450000,-4.690000,0.910000,3.853000,0.000000,1.269000,7.731000,0.469000,96.000000,90.000000
506,20451.000,20.027000,-0.064000,0.079000,1.021000,-8.330000,-3.010000,-0.560000,3.739000,0.000000,1.250000,7.561000,0.301000,96.000000,90.000000
507,20471.000,20.009001,0.080000,0.015000,0.996000,4.060000,-5.670000,1.050000,3.712000,0.000000,1.279000,7.384000,0.567000,96.000000,90.000000
508,20490.000,20.004999,0.192000,-0.052000,0.967000,0.700000,-8.820000,1.750000,3.555000,0.000000,1.328000,7.103000,0.882000,96.000000,90.000000
509,20510.000,20.016001,0.086000,0.094000,1.024000,-8.470000,-5.600000,-1.610000,3.586000,0.000000,1.269000,7.256000,0.560000,96.000000,90.000000
510,20530.000,20.002001,0.174000,0.135000,0.985000,-1.120000,-1.610000,-1.820000,3.773000,0.000000,1.206000,7.556000,0.161000,96.000000,90.000000
511,20550.000,20.007999,0.129000,-0.007000,0.985000,3.990000,-3.430000,-2.310000,3.630000,0.000000,1.185000,7.221000,0.343000,96.000000,90.000000
512,20570.000,20.007000,0.000000,-0.012000,1.015000,-3.080000,-7.910000,1.190000,3.490000,0.000000,1.214000,7.010000,0.791000,96.000000,90.000000
513,20590.000,20.009001,-0.019000,0.094000,0.964000,-4.760000,-6.510000,-0.350000,3.494000,0.000000,1.191000,7.035000,0.651000,96.000000,90.000000
514,20610.000,20.010000,0.228000,0.080000,0.982000,-4.480000,-5.390000,1.330000,3.501000,0.000000,1.202000,7.047000,0.539000,96.000000,90.000000
515,20629.000,20.006001,0.194000,-0.051000,1.004000,1.750000,-0.490000,-1.190000,3.359000,0.000000,1.201000,6.700000,0.049000,96.000000,90.000000
516,20649.000,20.004000,0.013000,0.030000,1.025000,-0.700000,-0.280000,-1.680000,3.354000,0.000000,1.166000,6.715000,0.028000,96.000000,90.000000
517,20669.000,20.003000,0.121000,0.040000,1.015000,-0.560000,-1.960000,1.330000,3.524000,0.000000,1.169000,7.053000,0.196000,96.000000,90.000000
518,20689.000,20.020000,0.208000,0.031000,1.037000,-4.900000,1.330000,3.360000,3.415000,0.000000,1.238000,6.880000,-0.133000,96.000000,89.000000
519,20709.000,20.000999,0.031000,0.000000,0.940000,-1.120000,5.740000,2.730000,3.321000,0.000000,1.304000,6.653000,-0.574000,96.000000,89.000000
520,20729.000,20.011999,-0.020000,-0.039000,0.993000,-0.280000,2.940000,2.870000,3.212000,0.000000,1.375000,6.428000,-0.294000,96.000000,89.000000
521,20748.000,20.010000,0.137000,-0.022000,0.982000,-1.330000,-3.220000,3.990000,2.963000,0.000000,1.479000,5.939000,0.322000,97.000000,90.000000
522,20768.000,20.004000,0.042000,0.034000,0.979000,-3.080000,-3.220000,0.140000,2.942000,0.000000,1.476000,5.915000,0.322000,97.000000,90.000000
523,20788.000,20.014999,-0.016000,0.029000,1.042000,0.630000,1.050000,-2.730000,2.974000,0.000000,1.420000,5.942000,-0.105000,97.000000,89.000000
524,20808.000,20.007999,0.160000,-0.008000,0.970000,3.710000,-0.070000,1.540000,2.931000,0.000000,1.464000,5.826000,0.007000,97.000000,90.000000
525,20828.000,20.009001,0.133000,-0.048000,1.056000,4.130000,-4.620000,2.100000,2.780000,0.000000,1.531000,5.518000,0.462000,97.000000,90.000000
526,20848.000,20.014999,-0.066000,0.081000,1.011000,-3.850000,-2.730000,1.190000,2.773000,0.000000,1.546000,5.585000,0.273000,97.000000,90.000000
527,20867.000,20.004000,0.088000,0.068000,0.943000,-1.120000,1.260000,-0.560000,2.962000,0.000000,1.510000,5.936000,-0.126000,97.000000,89.000000
528,20887.000,20.016001,0.181000,-0.081000,0.982000,6.790000,-2.870000,-1.680000,2.910000,0.000000,1.498000,5.752000,0.287000,97.000000,90.000000
529,20907.000,20.006001,-0.011000,-0.021000,0.961000,0.000000,-6.930000,0.420000,2.840000,0.000000,1.511000,5.680000,0.693000,97.000000,90.000000
530,20927.000,20.004000,-0.003000,0.132000,0.987000,-3.220000,-4.550000,-0.560000,2.937000,0.000000,1.480000,5.907000,0.455000,97.000000,90.000000
531,20947.000,20.010000,0.211000,0.055000,0.983000,2.800000,0.770000,1.610000,3.068000,0.000000,1.503000,6.107000,-0.077000,96.000000,89.000000
532,20967.000,20.004999,0.270000,-0.035000,0.996000,3.360000,2.030000,2.450000,3.047000,0.000000,1.563000,6.061000,-0.203000,96.000000,89.000000
src_seq,t_ms,dt_ms,ax,ay,az,gx,gy,gz,roll,pitch,yaw,pid_roll,pid_pitch,sv1,sv3
533,20986.000,20.002001,-0.028000,-0.010000,0.971000,0.000000,-3.220000,0.490000,2.998000,0.000000,1.578000,5.996000,0.322000,97.000000,90.000000
534,21006.000,20.009001,0.088000,0.059000,0.996000,1.400000,-4.760000,-1.680000,3.208000,0.000000,1.521000,6.403000,0.476000,96.000000,90.000000
535,21026.000,20.007000,0.170000,0.029000,0.966000,2.310000,-2.240000,-1.330000,3.280000,0.000000,1.490000,6.537000,0.224000,96.000000,90.000000
536,21046.000,20.017000,0.027000,-0.011000,1.014000,3.430000,2.310000,-2.030000,3.272000,0.000000,1.460000,6.509000,-0.231000,96.000000,89.000000
537,21066.000,20.007999,0.076000,0.032000,0.994000,0.910000,0.700000,1.470000,3.320000,0.000000,1.486000,6.630000,-0.070000,96.000000,89.000000
538,21086.000,20.006001,0.162000,0.017000,1.021000,1.750000,-1.330000,1.890000,3.299000,0.000000,1.530000,6.581000,0.133000,96.000000,90.000000
539,21106.000,20.000999,0.006000,0.055000,1.003000,-2.100000,-0.560000,0.980000,3.311000,0.000000,1.542000,6.643000,0.056000,96.000000,90.000000
540,21125.000,20.013000,-0.123000,-0.016000,0.975000,5.040000,1.470000,-1.400000,3.375000,0.000000,1.520000,6.699000,-0.147000,96.000000,89.000000
541,21145.000,20.000999,0.164000,-0.015000,1.001000,1.260000,-2.800000,3.010000,3.247000,0.000000,1.595000,6.481000,0.280000,96.000000,90.000000
542,21165.000,20.010000,0.251000,0.065000,1.025000,2.870000,-4.620000,0.770000,3.368000,0.000000,1.601000,6.706000,0.462000,96.000000,90.000000
543,21185.000,20.011999,-0.006000,0.086000,0.972000,-4.830000,0.630000,17.360001,3.329000,0.000000,1.939000,6.706000,-0.063000,96.000000,89.000000
544,21205.000,20.007000,0.012000,-0.011000,1.007000,2.730000,2.730000,-1.540000,3.310000,0.000000,1.918000,6.592000,-0.273000,96.000000,89.000000
545,21225.000,20.014999,0.164000,-0.057000,0.944000,-2.310000,-2.030000,1.190000,3.072000,0.000000,1.962000,6.168000,0.203000,96.000000,90.000000
546,21244.000,20.002001,0.140000,0.042000,0.976000,-3.710000,-5.880000,-1.540000,3.138000,0.000000,1.913000,6.314000,0.588000,96.000000,90.000000
547,21264.000,20.007000,0.078000,0.092000,1.024000,-4.900000,-3.710000,-0.210000,3.233000,0.000000,1.884000,6.515000,0.371000,96.000000,90.000000
548,21284.000,20.014000,0.050000,0.047000,0.941000,5.530000,-0.770000,-4.410000,3.435000,0.000000,1.785000,6.814000,0.077000,96.000000,90.000000
549,21304.000,20.010000,0.108000,0.031000,0.994000,3.290000,-6.650000,-2.170000,3.582000,0.000000,1.729000,7.131000,0.665000,96.000000,90.000000
550,21324.000,20.014999,0.064000,0.006000,0.970000,-0.560000,-7.280000,-0.420000,3.467000,0.000000,1.728000,6.940000,0.728000,96.000000,90.000000
551,21344.000,20.002001,0.157000,0.095000,0.990000,-9.030000,-2.590000,1.190000,3.476000,0.000000,1.729000,7.042000,0.259000,96.000000,90.000000
552,21364.000,20.011999,-0.027000,0.025000,1.002000,6.510000,2.030000,2.310000,3.594000,0.000000,1.778000,7.122000,-0.203000,96.000000,89.000000
553,21383.000,20.017000,-0.140000,-0.071000,1.022000,-0.560000,-0.980000,0.980000,3.494000,0.000000,1.806000,6.994000,0.098000,96.000000,90.000000
554,21403.000,20.003000,0.175000,-0.008000,0.978000,-0.700000,-6.300000,1.750000,3.366000,0.000000,1.850000,6.738000,0.630000,96.000000,90.000000
555,21423.000,20.004999,0.279000,0.044000,1.059000,-2.240000,-2.940000,1.190000,3.340000,0.000000,1.870000,6.703000,0.294000,96.000000,90.000000
556,21443.000,20.004999,0.046000,0.047000,0.973000,-4.830000,3.150000,1.960000,3.305000,0.000000,1.903000,6.657000,-0.315000,96.000000,89.000000
557,21463.000,20.017000,-0.075000,-0.049000,1.035000,1.750000,2.450000,-1.610000,3.258000,0.000000,1.882000,6.499000,-0.245000,96.000000,89.000000
558,21483.000,20.011000,0.130000,-0.050000,0.920000,-0.350000,-4.970000,1.610000,3.033000,0.000000,1.935000,6.070000,0.497000,96.000000,90.000000
559,21502.000,20.003000,0.117000,0.049000,0.995000,-5.180000,-4.060000,-2.870000,3.165000,0.000000,1.850000,6.381000,0.406000,96.000000,90.000000
560,21522.000,20.007999,0.060000,0.099000,0.944000,-7.980000,3.920000,0.280000,3.198000,0.000000,1.835000,6.475000,-0.392000,96.000000,89.000000
561,21542.000,20.002001,-0.065000,-0.062000,1.019000,0.070000,2.450000,-0.210000,3.099000,0.000000,1.843000,6.197000,-0.245000,96.000000,89.000000
562,21562.000,20.009001,0.031000,-0.022000,0.991000,-2.030000,-5.390000,2.450000,2.936000,0.000000,1.903000,5.892000,0.539000,97.000000,90.000000
563,21582.000,20.009001,0.116000,0.006000,1.076000,3.360000,-4.760000,0.490000,2.773000,0.000000,1.935000,5.513000,0.476000,97.000000,90.000000
564,21602.000,20.007999,0.152000,0.046000,0.954000,-3.710000,0.910000,2.100000,2.816000,0.000000,1.964000,5.669000,-0.091000,97.000000,89.000000
565,21622.000,20.004999,0.039000,-0.063000,1.030000,2.380000,1.470000,0.000000,2.695000,0.000000,1.983000,5.367000,-0.147000,97.000000,89.000000
566,21641.000,20.007000,-0.052000,-0.038000,1.022000,-1.260000,-7.630000,-1.610000,2.601000,0.000000,1.956000,5.215000,0.763000,97.000000,90.000000
567,21661.000,20.000999,0.064000,0.029000,0.805000,-2.450000,-3.780000,-1.400000,2.701000,0.000000,1.911000,5.426000,0.378000,97.000000,90.000000
568,21681.000,20.002001,0.343000,0.157000,1.507000,19.879999,0.980000,-0.140000,3.233000,0.000000,1.894000,6.268000,-0.098000,96.000000,89.000000
569,21701.000,20.010000,0.017000,0.125000,1.016000,12.460000,2.800000,-4.410000,3.660000,0.000000,1.790000,7.196000,-0.280000,96.000000,89.000000
570,21721.000,20.014000,-0.026000,0.098000,1.046000,17.709999,-1.540000,-0.140000,4.114000,0.000000,1.776000,8.051000,0.154000,95.000000,90.000000
571,21741.000,20.000999,0.113000,0.021000,0.957000,-7.490000,-5.040000,1.680000,3.796000,0.000000,1.823000,7.667000,0.504000,96.000000,90.000000
572,21760.000,20.007999,0.257000,-0.008000,0.897000,-14.980000,0.840000,2.520000,3.437000,0.000000,1.881000,7.023000,-0.084000,96.000000,89.000000
573,21780.000,20.013000,0.127000,-0.073000,1.091000,-5.950000,1.120000,3.010000,3.081000,0.000000,1.967000,6.222000,-0.112000,96.000000,89.000000
574,21800.000,20.010000,-0.055000,-0.147000,1.127000,1.470000,-5.040000,0.140000,2.950000,0.000000,1.985000,5.886000,0.504000,97.000000,90.000000
575,21820.000,20.000999,0.195000,0.004000,0.981000,2.310000,-7.140000,-0.140000,2.957000,0.000000,1.983000,5.891000,0.714000,97.000000,90.000000
576,21840.000,20.042999,0.247000,0.061000,0.894000,5.180000,-2.310000,1.120000,3.124000,0.000000,1.997000,6.195000,0.231000,96.000000,90.000000
577,21860.000,20.004000,0.136000,0.043000,1.007000,5.320000,0.840000,-2.380000,3.415000,0.000000,1.928000,6.776000,-0.084000,96.000000,89.000000
578,21880.000,20.014999,-0.015000,0.040000,1.043000,0.280000,-4.270000,-3.710000,3.447000,0.000000,1.849000,6.891000,0.427000,96.000000,90.000000
579,21899.000,20.007000,0.144000,0.031000,0.947000,-4.690000,-5.390000,-1.050000,3.385000,0.000000,1.821000,6.816000,0.539000,96.000000,90.000000
580,21919.000,20.007999,0.161000,0.065000,0.890000,-6.930000,1.820000,0.630000,3.389000,0.000000,1.817000,6.847000,-0.182000,96.000000,89.000000
581,21939.000,20.009001,-0.072000,-0.019000,1.084000,-2.170000,2.170000,0.140000,3.293000,0.000000,1.828000,6.607000,-0.217000,96.000000,89.000000
582,21959.000,20.002001,-0.106000,-0.087000,1.100000,-0.840000,-5.880000,2.730000,3.169000,0.000000,1.892000,6.347000,0.588000,96.000000,90.000000
583,21979.000,20.007000,0.034000,-0.040000,0.966000,-0.070000,-4.690000,4.270000,3.019000,0.000000,1.992000,6.039000,0.469000,96.000000,90.000000
584,21999.000,20.007000,0.062000,0.014000,0.966000,2.240000,0.140000,1.050000,3.034000,0.000000,2.016000,6.046000,-0.014000,96.000000,89.000000
585,22019.000,20.003000,-0.017000,0.002000,1.076000,3.080000,-1.120000,-1.960000,3.066000,0.000000,1.981000,6.100000,0.112000,96.000000,90.000000
586,22038.000,20.014000,-0.040000,-0.074000,1.023000,-0.280000,-4.270000,0.560000,2.936000,0.000000,2.003000,5.875000,0.427000,97.000000,90.000000
587,22058.000,20.009001,0.004000,-0.081000,1.000000,-6.370000,-3.360000,0.630000,2.649000,0.000000,2.032000,5.362000,0.336000,97.000000,90.000000
588,22078.000,20.014000,0.018000,0.029000,1.037000,-5.110000,-5.880000,-17.500000,2.618000,0.000000,1.674000,5.286000,0.588000,97.000000,90.000000
589,22098.000,20.006001,0.105000,-0.005000,0.956000,2.310000,-6.230000,-1.750000,2.441000,0.000000,1.662000,4.859000,0.623000,97.000000,90.000000
590,22118.000,20.000999,0.068000,-0.073000,0.937000,0.630000,-2.870000,-3.780000,2.249000,0.000000,1.608000,4.491000,0.287000,97.000000,90.000000
591,22138.000,20.007999,0.067000,0.022000,0.994000,-0.280000,-2.380000,-0.980000,2.322000,0.000000,1.580000,4.647000,0.238000,97.000000,90.000000
592,22157.000,20.009001,0.163000,0.092000,0.937000,-0.630000,-4.550000,-1.120000,2.495000,0.000000,1.537000,4.997000,0.455000,97.000000,90.000000
593,22177.000,20.006001,0.151000,0.079000,0.901000,5.950000,1.120000,0.910000,2.795000,0.000000,1.535000,5.531000,-0.112000,97.000000,89.000000
594,22197.000,20.000999,0.000000,-0.006000,1.068000,3.220000,1.960000,-0.840000,2.815000,0.000000,1.524000,5.598000,-0.196000,97.000000,89.000000
595,22217.000,20.004000,-0.001000,0.035000,1.072000,0.910000,-5.110000,-17.290001,2.901000,0.000000,1.171000,5.793000,0.511000,97.000000,90.000000
596,22237.000,20.020000,0.238000,0.043000,0.937000,1.120000,-4.830000,0.910000,2.963000,0.000000,1.183000,5.914000,0.483000,97.000000,90.000000
597,22257.000,20.002001,0.265000,0.033000,0.957000,1.050000,0.420000,0.910000,3.001000,0.000000,1.200000,5.991000,-0.042000,97.000000,89.000000
598,22277.000,20.014000,0.083000,-0.029000,1.096000,0.980000,0.000000,-1.540000,2.845000,0.000000,1.189000,5.681000,0.000000,97.000000,90.000000
599,22296.000,20.010000,0.048000,-0.076000,1.080000,4.900000,-7.350000,-1.120000,2.763000,0.000000,1.184000,5.478000,0.735000,97.000000,90.000000
600,22316.000,20.003000,0.156000,0.011000,0.952000,3.570000,-6.370000,-3.290000,2.819000,0.000000,1.118000,5.601000,0.637000,97.000000,90.000000
601,22336.000,20.014000,0.125000,0.077000,0.956000,3.290000,-0.350000,-1.260000,3.114000,0.000000,1.066000,6.195000,0.035000,96.000000,90.000000
602,22356.000,20.014999,-0.038000,-0.059000,1.063000,7.560000,-1.260000,-0.910000,3.163000,0.000000,1.059000,6.250000,0.126000,96.000000,90.000000
603,22376.000,20.006001,0.004000,-0.050000,1.023000,2.590000,-6.650000,2.030000,3.085000,0.000000,1.111000,6.144000,0.665000,96.000000,90.000000
604,22396.000,20.004000,0.099000,0.015000,0.911000,-5.460000,-4.270000,4.130000,2.799000,0.000000,1.211000,5.654000,0.427000,97.000000,90.000000
605,22415.000,20.010000,0.082000,-0.007000,0.961000,3.640000,0.070000,-0.350000,2.721000,0.000000,1.221000,5.405000,-0.007000,97.000000,89.000000
606,22435.000,20.014999,0.174000,-0.049000,1.019000,8.050000,-2.590000,-3.920000,2.722000,0.000000,1.160000,5.363000,0.259000,97.000000,90.000000
607,22455.000,20.017000,-0.007000,-0.111000,0.974000,2.380000,-1.190000,-1.330000,2.604000,0.000000,1.152000,5.184000,0.119000,97.000000,90.000000
608,22475.000,20.011000,-0.071000,0.002000,1.024000,2.030000,1.470000,-1.610000,2.633000,0.000000,1.122000,5.245000,-0.147000,97.000000,89.000000
609,22495.000,20.004000,0.081000,0.077000,1.034000,4.830000,-0.700000,0.910000,2.935000,0.000000,1.118000,5.821000,0.070000,97.000000,90.000000
610,22515.000,20.000999,0.084000,-0.233000,1.115000,1.750000,-5.740000,1.400000,2.739000,0.000000,1.168000,5.460000,0.574000,97.000000,90.000000
611,22535.000,20.007000,-0.008000,-0.070000,1.104000,12.110000,-5.530000,-4.060000,2.858000,0.000000,1.099000,5.595000,0.553000,97.000000,90.000000
612,22554.000,20.007000,-0.046000,0.075000,0.988000,14.210000,-6.370000,-0.700000,3.226000,0.000000,1.074000,6.309000,0.637000,96.000000,90.000000
613,22574.000,20.000999,0.142000,0.132000,0.879000,4.480000,-4.480000,-2.310000,3.530000,0.000000,1.003000,7.016000,0.448000,96.000000,90.000000
614,22594.000,20.004999,0.064000,0.171000,0.894000,-1.050000,2.660000,0.070000,3.734000,0.000000,0.982000,7.478000,-0.266000,96.000000,89.000000
615,22614.000,20.016001,0.040000,0.004000,1.058000,-9.380000,-0.420000,4.410000,3.443000,0.000000,1.080000,6.980000,0.042000,96.000000,90.000000
616,22634.000,20.007000,0.002000,-0.049000,1.011000,-12.390000,-4.550000,-0.980000,3.058000,0.000000,1.072000,6.239000,0.455000,96.000000,90.000000
617,22654.000,20.014999,0.169000,0.091000,0.976000,-2.870000,-1.540000,0.560000,3.161000,0.000000,1.066000,6.351000,0.154000,96.000000,90.000000
618,22673.000,20.011999,0.145000,-0.112000,1.011000,6.650000,1.820000,0.140000,3.072000,0.000000,1.092000,6.078000,-0.182000,96.000000,89.000000
619,22693.000,20.011999,0.040000,-0.047000,1.112000,5.740000,-0.980000,-1.050000,3.032000,0.000000,1.087000,6.007000,0.098000,96.000000,90.000000
620,22713.000,20.004999,0.102000,0.078000,1.037000,6.580000,-4.480000,0.000000,3.394000,0.000000,1.062000,6.722000,0.448000,96.000000,90.000000
src_seq,t_ms,dt_ms,ax,ay,az,gx,gy,gz,roll,pitch,yaw,pid_roll,pid_pitch,sv1,sv3
621,22733.000,20.003000,0.168000,0.103000,0.931000,3.640000,-1.330000,-0.420000,3.637000,0.000000,1.035000,7.237000,0.133000,96.000000,90.000000
622,22753.000,20.004999,-0.068000,-0.017000,1.056000,3.150000,-0.980000,1.750000,3.634000,0.000000,1.076000,7.237000,0.098000,96.000000,90.000000
623,22773.000,20.014999,-0.001000,-0.087000,1.068000,-9.520000,-8.120000,2.940000,3.268000,0.000000,1.147000,6.631000,0.812000,96.000000,90.000000
626,22832.000,20.004999,-0.021000,-0.096000,1.011000,1.680000,-0.560000,-4.970000,2.723000,0.000000,1.149000,5.430000,0.056000,97.000000,90.000000
627,22852.000,20.017000,0.074000,0.006000,0.962000,1.400000,-3.220000,-2.730000,2.690000,0.000000,1.100000,5.366000,0.322000,97.000000,90.000000
628,22872.000,20.017000,0.119000,-0.002000,0.896000,2.870000,1.260000,-0.140000,2.614000,0.000000,1.112000,5.200000,-0.126000,97.000000,89.000000
629,22892.000,20.011999,0.059000,0.065000,1.001000,-3.150000,2.380000,-1.960000,2.717000,0.000000,1.056000,5.466000,-0.238000,97.000000,89.000000
630,22911.000,20.007999,-0.101000,0.075000,1.045000,2.730000,0.980000,-1.120000,2.835000,0.000000,1.027000,5.642000,-0.098000,97.000000,89.000000
631,22931.000,20.006001,0.173000,-0.002000,1.057000,0.770000,-4.480000,-17.080000,2.815000,0.000000,0.690000,5.622000,0.448000,97.000000,90.000000
632,22951.000,20.017000,0.168000,0.000000,0.991000,-6.020000,-2.100000,1.680000,2.625000,0.000000,0.730000,5.310000,0.210000,97.000000,90.000000
633,22971.000,20.016001,-0.136000,0.046000,1.017000,-6.300000,-0.140000,2.170000,2.523000,0.000000,0.771000,5.108000,0.014000,97.000000,90.000000
634,22991.000,20.033001,0.038000,0.270000,0.973000,14.420000,-6.720000,-1.820000,3.038000,0.000000,0.708000,5.932000,0.672000,97.000000,90.000000
635,23011.000,20.009001,0.216000,0.052000,0.958000,-3.220000,-5.950000,6.930000,3.020000,0.000000,0.838000,6.073000,0.595000,96.000000,90.000000
636,23031.000,20.017000,0.630000,-0.074000,1.049000,-18.620001,-9.380000,11.410000,2.578000,0.000000,1.070000,5.343000,0.938000,97.000000,90.000000
637,23050.000,20.007999,1.719000,-0.187000,0.992000,-23.100000,-8.190000,15.750000,2.048000,0.000000,1.391000,4.327000,0.819000,97.000000,90.000000
638,23070.000,20.013000,2.695000,-0.308000,1.019000,-8.400000,-6.020000,14.560000,1.813000,0.000000,1.688000,3.710000,0.602000,98.000000,90.000000
639,23090.000,20.007000,3.997000,-0.117000,0.755000,9.170000,-3.220000,17.010000,1.942000,0.000000,2.032000,3.793000,0.322000,98.000000,90.000000
640,23110.000,20.000999,3.997000,0.260000,1.098000,8.330000,2.520000,1.330000,2.121000,0.000000,2.057000,4.158000,-0.252000,97.000000,89.000000
641,23130.000,20.016001,3.997000,0.343000,2.030000,16.730000,-1.050000,-4.830000,2.490000,0.000000,1.955000,4.813000,0.105000,97.000000,90.000000
642,23150.000,20.004000,3.997000,0.105000,0.533000,16.870001,-84.980003,-3.920000,2.851000,0.000000,1.848000,5.533000,8.498000,97.000000,94.000000
643,23169.000,20.009001,3.997000,0.493000,0.853000,18.059999,-45.500000,3.920000,3.229000,0.000000,1.902000,6.278000,4.550000,96.000000,92.000000
644,23189.000,20.014999,3.997000,0.154000,-1.299000,1.400000,-39.410000,4.340000,3.253000,0.000000,1.968000,6.493000,3.941000,96.000000,91.000000
645,23209.000,20.009001,2.657000,0.260000,0.007000,-7.700000,45.080002,-1.330000,3.123000,0.000000,1.958000,6.324000,-4.508000,96.000000,87.000000
646,23229.000,20.003000,1.712000,0.179000,1.039000,1.820000,26.320000,9.310000,3.143000,0.000000,2.156000,6.267000,-2.632000,96.000000,88.000000
647,23249.000,20.014999,0.253000,0.024000,0.809000,-10.850000,14.770000,11.830000,2.889000,0.000000,2.402000,5.887000,-1.477000,97.000000,89.000000
648,23269.000,20.009001,-0.197000,0.155000,0.355000,-44.029999,43.959999,5.110000,2.100000,0.000000,2.493000,4.639000,-4.396000,97.000000,87.000000
649,23288.000,20.011000,0.039000,-0.003000,1.087000,0.700000,16.240000,7.000000,2.075000,0.000000,2.639000,4.144000,-1.624000,97.000000,89.000000
650,23308.000,20.017000,-0.100000,-0.042000,0.772000,-3.290000,15.890000,10.990000,1.927000,0.000000,2.871000,3.887000,-1.589000,98.000000,89.000000
651,23328.000,20.004999,-0.113000,0.097000,0.772000,-20.719999,26.250000,2.310000,1.591000,0.000000,2.903000,3.389000,-2.625000,98.000000,88.000000
652,23348.000,20.014999,-0.016000,0.184000,0.896000,-23.940001,13.580000,8.750000,1.267000,0.000000,3.050000,2.772000,-1.358000,98.000000,89.000000
653,23367.000,20.011000,-0.071000,-0.006000,0.644000,-28.420000,7.140000,7.490000,0.677000,0.000000,3.199000,1.638000,-0.714000,99.000000,89.000000
654,23387.000,20.013000,-0.078000,-0.010000,0.711000,-34.509998,18.129999,5.810000,-0.022000,0.000000,3.304000,0.300000,-1.813000,99.000000,89.000000
655,23407.000,20.017000,-0.029000,0.004000,0.985000,-24.780001,11.130000,9.100000,-0.487000,0.000000,3.472000,-0.727000,-1.113000,100.000000,89.000000
656,23427.000,20.007999,-0.050000,-0.131000,0.859000,-22.049999,2.240000,5.180000,-1.064000,0.000000,3.588000,-1.907000,-0.224000,100.000000,89.000000
657,23447.000,20.007000,-0.073000,-0.012000,0.713000,-19.530001,8.610000,3.570000,-1.426000,0.000000,3.646000,-2.658000,-0.861000,101.000000,89.000000
658,23467.000,20.013000,-0.062000,0.066000,0.928000,-4.060000,10.430000,6.090000,-1.383000,0.000000,3.742000,-2.726000,-1.043000,101.000000,89.000000
659,23486.000,20.006001,-0.043000,-0.030000,0.889000,0.770000,1.750000,3.500000,-1.341000,0.000000,3.807000,-2.689000,-0.175000,101.000000,89.000000
660,23506.000,20.009001,-0.091000,0.078000,0.673000,-0.490000,4.690000,3.500000,-1.220000,0.000000,3.859000,-2.435000,-0.469000,101.000000,89.000000
661,23526.000,20.006001,-0.081000,0.094000,0.785000,5.180000,10.360000,6.160000,-0.974000,0.000000,3.959000,-1.999000,-1.036000,100.000000,89.000000
662,23546.000,20.016001,-0.051000,-0.013000,0.851000,6.790000,3.990000,4.760000,-0.794000,0.000000,4.047000,-1.655000,-0.399000,100.000000,89.000000
663,23566.000,20.004999,-0.093000,0.044000,0.759000,5.530000,5.040000,4.550000,-0.585000,0.000000,4.126000,-1.225000,-0.504000,100.000000,89.000000
664,23586.000,20.013000,-0.068000,0.024000,0.794000,11.340000,8.470000,8.050000,-0.275000,0.000000,4.274000,-0.664000,-0.847000,100.000000,89.000000
665,23606.000,20.003000,-0.046000,-0.065000,0.869000,10.010000,5.180000,6.160000,-0.154000,0.000000,4.399000,-0.408000,-0.518000,100.000000,89.000000
666,23625.000,20.013000,-0.071000,0.028000,0.851000,11.340000,4.900000,6.230000,0.162000,0.000000,4.515000,0.212000,-0.490000,99.000000,89.000000
667,23645.000,20.025000,-0.062000,0.011000,0.856000,16.870001,7.630000,9.240000,0.562000,0.000000,4.693000,0.954000,-0.763000,99.000000,89.000000
668,23665.000,20.013000,-0.049000,-0.027000,0.887000,14.350000,3.850000,7.420000,0.822000,0.000000,4.842000,1.500000,-0.385000,99.000000,89.000000
669,23685.000,20.000999,-0.053000,0.039000,0.872000,12.530000,3.920000,7.280000,1.183000,0.000000,4.982000,2.241000,-0.392000,98.000000,89.000000
670,23705.000,20.017000,-0.056000,0.037000,0.951000,13.300000,5.670000,9.170000,1.547000,0.000000,5.161000,2.960000,-0.567000,98.000000,89.000000
671,23725.000,20.009001,-0.055000,-0.003000,0.983000,8.750000,3.080000,7.070000,1.721000,0.000000,5.303000,3.354000,-0.308000,98.000000,89.000000
672,23744.000,20.009001,-0.055000,0.017000,0.930000,3.920000,1.820000,8.260000,1.846000,0.000000,5.467000,3.652000,-0.182000,98.000000,89.000000
673,23764.000,20.000999,-0.033000,-0.008000,0.913000,-0.700000,2.870000,8.260000,1.792000,0.000000,5.633000,3.591000,-0.287000,98.000000,89.000000
674,23784.000,20.011999,-0.035000,-0.021000,1.019000,-5.460000,1.820000,7.560000,1.596000,0.000000,5.785000,3.247000,-0.182000,98.000000,89.000000
675,23804.000,20.007999,-0.066000,0.023000,1.018000,-7.560000,1.400000,7.490000,1.514000,0.000000,5.934000,3.103000,-0.140000,98.000000,89.000000
676,23824.000,20.004000,-0.051000,-0.019000,1.033000,-8.470000,0.770000,7.560000,1.294000,3.720000,6.085000,2.673000,25.961000,98.000000,102.000000
677,23844.000,20.004999,-0.033000,-0.003000,0.987000,-10.920000,-0.490000,6.230000,1.107000,3.938000,6.209000,2.324000,27.987000,98.000000,103.000000
678,23863.000,20.007999,-0.055000,0.022000,0.952000,-9.660000,-0.630000,6.160000,1.032000,4.124000,6.332000,2.160000,29.694000,98.000000,104.000000
679,23883.000,20.016001,-0.060000,-0.017000,0.954000,-7.630000,-0.070000,5.530000,0.864000,4.352000,6.442000,1.804000,31.653000,99.000000,105.000000
680,23903.000,20.025000,-0.057000,0.033000,0.964000,-7.770000,0.140000,5.320000,0.865000,4.524000,6.549000,1.809000,33.271000,99.000000,106.000000
681,23923.000,20.009001,-0.011000,-0.051000,0.920000,-0.910000,0.350000,7.980000,0.621000,4.557000,6.707000,1.250000,33.931999,99.000000,106.000000
682,23943.000,20.007000,-0.044000,-0.006000,1.061000,-16.100000,-2.520000,8.120000,0.395000,4.720000,6.871000,0.950000,35.810001,99.000000,107.000000
683,23963.000,20.007000,-0.031000,0.020000,1.072000,9.800000,-20.719999,5.180000,0.805000,4.391000,6.986000,1.512000,35.804001,99.000000,107.000000
684,23983.000,20.010000,-0.034000,0.022000,1.107000,-16.870001,-16.240000,9.100000,0.660000,4.196000,7.175000,1.488000,34.428001,99.000000,107.000000
685,24002.000,20.016001,-0.027000,-0.015000,1.216000,-0.770000,-18.129999,9.170000,0.723000,4.052000,7.366000,1.454000,34.030998,99.000000,107.000000
686,24022.000,20.013000,-0.048000,0.017000,1.244000,-0.700000,-26.180000,8.190000,0.857000,3.706000,7.539000,1.721000,32.818001,99.000000,106.000000
687,24042.000,20.009001,-0.042000,-0.013000,1.165000,-1.120000,-29.260000,9.170000,0.862000,3.351000,7.732000,1.735000,31.014000,99.000000,105.000000
688,24062.000,20.007999,-0.025000,-0.004000,1.292000,-2.030000,-29.400000,8.610000,0.909000,2.977000,7.912000,1.838000,28.740000,99.000000,104.000000
689,24082.000,20.014999,-0.036000,0.029000,1.361000,-0.210000,-33.950001,7.560000,1.046000,2.477000,8.071000,2.094000,25.997000,98.000000,102.000000
690,24102.000,20.004999,-0.050000,0.009000,1.313000,1.960000,-35.980000,7.910000,1.146000,1.979000,8.236000,2.273000,22.959000,98.000000,101.000000
691,24121.000,20.014000,-0.039000,-0.015000,1.394000,17.500000,-38.150002,8.120000,1.492000,1.446000,8.406000,2.808000,19.645000,98.000000,99.000000
692,24141.000,20.003000,-0.022000,0.024000,1.370000,0.980000,-40.389999,8.330000,1.583000,0.854000,8.573000,3.156000,15.866000,98.000000,97.000000
693,24161.000,20.004000,-0.035000,-0.003000,1.436000,1.190000,-34.230000,9.450000,1.599000,0.399000,8.764000,3.186000,12.149000,98.000000,96.000000
694,24181.000,20.011000,-0.021000,0.008000,1.464000,1.820000,-36.189999,9.730000,1.648000,-0.097000,8.960000,3.277000,8.913000,98.000000,94.000000
695,24201.000,20.004999,-0.049000,-0.012000,1.426000,0.770000,-34.790001,10.430000,1.635000,-0.564000,9.172000,3.262000,5.494000,98.000000,92.000000
696,24221.000,20.002001,-0.053000,0.029000,1.424000,-7.070000,-34.369999,10.780000,1.519000,-1.027000,9.387000,3.109000,2.158000,98.000000,91.000000
697,24240.000,20.003000,-0.096000,-0.009000,1.301000,2.380000,-34.580002,11.620000,1.542000,-1.489000,9.624000,3.060000,-1.159000,98.000000,89.000000
698,24260.000,20.007000,-0.066000,0.000000,1.229000,6.230000,-22.469999,10.430000,1.652000,-1.710000,9.835000,3.242000,-4.064000,98.000000,87.000000
699,24280.000,20.007000,-0.020000,0.016000,1.260000,1.750000,-19.950001,12.600000,1.691000,-1.882000,10.086000,3.365000,-5.694000,98.000000,87.000000
700,24300.000,20.000999,-0.045000,0.010000,1.200000,3.430000,-19.670000,13.580000,1.747000,-2.048000,10.359000,3.460000,-7.069000,98.000000,86.000000
701,24320.000,20.000999,-0.052000,0.008000,1.214000,0.420000,-13.930000,14.630000,1.736000,-2.099000,10.652000,3.467000,-8.203000,98.000000,85.000000
702,24340.000,20.002001,-0.033000,0.049000,1.210000,-2.660000,-11.970000,14.140000,1.720000,-2.120000,10.929000,3.466000,-8.758000,98.000000,85.000000
703,24359.000,20.014000,-0.044000,-0.027000,1.134000,0.700000,-7.140000,15.680000,1.665000,-2.037000,11.249000,3.323000,-8.872000,98.000000,85.000000
704,24379.000,20.017000,-0.042000,0.020000,1.120000,1.470000,-4.970000,15.750000,1.694000,-1.910000,11.562000,3.373000,-8.404000,98.000000,85.000000
705,24399.000,20.014000,-0.054000,0.003000,1.053000,2.940000,-1.890000,16.590000,1.726000,-1.719000,11.895000,3.422000,-7.569000,98.000000,86.000000
706,24419.000,20.006001,-0.029000,-0.006000,0.961000,2.310000,2.170000,17.010000,1.730000,-1.448000,12.238000,3.438000,-6.245000,98.000000,86.000000
707,24439.000,20.016001,-0.037000,0.013000,0.974000,1.960000,4.690000,16.379999,1.764000,-1.127000,12.565000,3.508000,-4.395000,98.000000,87.000000
708,24459.000,20.004999,-0.064000,-0.003000,0.963000,1.400000,6.790000,17.010000,1.759000,-0.762000,12.907000,3.505000,-2.168000,98.000000,88.000000
709,24478.000,20.000999,-0.050000,-0.012000,0.918000,-2.100000,7.420000,15.890000,1.672000,-0.386000,13.227000,3.364000,0.328000,98.000000,90.000000
710,24498.000,20.016001,-0.034000,0.017000,0.874000,-4.060000,7.980000,15.540000,1.611000,-0.001000,13.535000,3.262000,2.928000,98.000000,91.000000
711,24518.000,20.017000,-0.054000,0.024000,0.859000,-5.180000,9.730000,15.190000,1.539000,0.417000,13.834000,3.131000,5.681000,98.000000,92.000000
712,24538.000,20.002001,-0.036000,0.013000,0.853000,-7.210000,8.540000,15.260000,1.418000,0.815000,14.136000,2.909000,8.624000,98.000000,94.000000
713,24558.000,20.016001,-0.062000,0.000000,0.803000,-9.520000,5.740000,14.490000,1.224000,1.160000,14.425000,2.544000,11.406000,98.000000,95.000000
714,24578.000,20.004999,-0.054000,-0.001000,0.771000,-10.780000,8.330000,14.070000,1.011000,1.559000,14.703000,2.130000,14.051000,98.000000,97.000000
715,24598.000,20.011000,-0.013000,-0.006000,0.787000,-12.950000,5.880000,12.390000,0.766000,1.908000,14.948000,1.661000,16.896999,99.000000,98.000000
716,24617.000,20.016001,-0.077000,0.061000,0.854000,-22.400000,6.930000,11.340000,0.441000,2.239000,15.166000,1.107000,19.301001,99.000000,99.000000
717,24637.000,20.007000,-0.028000,0.003000,0.914000,-12.530000,6.090000,9.520000,0.277000,2.575000,15.351000,0.680000,21.962999,99.000000,100.000000
718,24657.000,20.009001,-0.033000,-0.013000,0.923000,-9.590000,-1.260000,8.890000,0.128000,2.780000,15.528000,0.351000,24.384001,99.000000,102.000000
719,24677.000,20.007999,-0.040000,0.005000,0.900000,-9.730000,-0.350000,8.540000,0.037000,2.980000,15.696000,0.171000,25.975000,99.000000,102.000000
720,24697.000,20.014999,-0.009000,-0.002000,0.903000,-10.500000,-2.800000,7.980000,-0.013000,3.090000,15.854000,0.080000,27.284000,99.000000,103.000000
721,24717.000,20.017000,-0.020000,0.001000,0.943000,-6.580000,-3.710000,8.260000,0.002000,3.194000,16.018999,0.071000,28.417999,99.000000,104.000000
722,24736.000,20.016001,-0.011000,0.019000,0.985000,-8.330000,-9.030000,6.790000,0.038000,3.122000,16.158001,0.158000,28.764999,99.000000,104.000000
723,24756.000,20.009001,-0.020000,0.000000,0.972000,-6.650000,-11.060000,9.310000,0.048000,3.083000,16.348000,0.163000,29.004999,99.000000,104.000000
724,24776.000,20.010000,-0.023000,0.017000,1.017000,-3.570000,-13.230000,8.750000,0.151000,2.969000,16.528000,0.337000,28.730000,99.000000,104.000000
725,24796.000,20.007000,0.004000,0.026000,0.999000,-1.050000,-16.309999,11.480000,0.346000,2.709000,16.763000,0.702000,27.517000,99.000000,103.000000
726,24816.000,20.000999,-0.019000,0.009000,1.003000,1.540000,-17.780001,12.880000,0.516000,2.536000,17.025999,1.017000,26.724001,99.000000,103.000000
727,24836.000,20.011000,-0.027000,0.001000,1.091000,2.660000,-17.290001,13.370000,0.657000,2.404000,17.298000,1.288000,26.007000,99.000000,103.000000
728,24855.000,20.010000,0.005000,0.027000,1.139000,3.850000,-20.160000,16.030001,0.925000,2.118000,17.620001,1.811000,24.528000,99.000000,102.000000
729,24875.000,20.009001,-0.013000,-0.005000,1.153000,3.150000,-21.980000,18.480000,1.027000,1.906000,17.995001,2.022000,23.443001,98.000000,101.000000
730,24895.000,20.010000,-0.016000,-0.006000,1.166000,2.030000,-21.559999,18.760000,1.091000,1.706000,18.375000,2.161000,22.187000,98.000000,101.000000
731,24915.000,20.017000,0.011000,0.023000,1.188000,1.960000,-23.379999,19.600000,1.276000,1.403000,18.766001,2.533000,20.420000,98.000000,100.000000
732,24935.000,20.002001,-0.008000,0.008000,1.203000,-1.050000,-22.959999,20.440001,1.300000,1.167000,19.176001,2.611000,18.865999,98.000000,99.000000
733,24955.000,20.007999,-0.006000,-0.005000,1.188000,-0.980000,-24.010000,19.950001,1.279000,0.918000,19.579000,2.569000,17.348000,98.000000,98.000000
734,24974.000,20.002001,0.008000,0.014000,1.189000,-1.960000,-22.400000,21.559999,1.305000,0.685000,20.010000,2.630000,15.643000,98.000000,97.000000
735,24994.000,20.011999,0.022000,-0.004000,1.202000,-2.380000,-23.730000,21.000000,1.260000,0.441000,20.433001,2.544000,14.138000,98.000000,97.000000
736,25014.000,20.011000,0.003000,-0.019000,1.171000,-2.170000,-23.870001,21.000000,1.163000,0.195000,20.861000,2.347000,12.475000,98.000000,96.000000
737,25034.000,20.000999,-0.002000,-0.006000,1.138000,0.280000,-22.120001,19.740000,1.161000,-0.015000,21.260000,2.319000,10.848000,98.000000,95.000000
738,25054.000,20.017000,0.015000,-0.022000,1.149000,2.660000,-18.549999,20.020000,1.155000,-0.155000,21.667999,2.283000,9.510000,98.000000,94.000000
739,25074.000,20.004000,0.010000,-0.005000,1.133000,2.730000,-19.389999,19.250000,1.205000,-0.311000,22.056000,2.383000,8.483000,98.000000,94.000000
740,25094.000,20.003000,0.013000,-0.001000,1.147000,2.730000,-15.540000,19.040001,1.264000,-0.392000,22.438999,2.500000,7.500000,98.000000,93.000000
741,25113.000,20.011999,0.023000,0.012000,1.191000,2.520000,-16.450001,18.620001,1.357000,-0.501000,22.809999,2.689000,6.789000,98.000000,93.000000
742,25133.000,20.016001,0.001000,0.037000,1.171000,4.200000,-16.870001,17.570000,1.516000,-0.633000,23.157000,2.990000,5.862000,98.000000,92.000000
743,25153.000,20.014000,0.008000,0.011000,1.102000,-0.700000,-11.270000,18.549999,1.517000,-0.632000,23.525999,3.042000,5.241000,98.000000,92.000000
744,25173.000,20.009001,0.042000,0.029000,1.154000,-1.190000,-12.110000,19.389999,1.589000,-0.683000,23.906000,3.191000,4.907000,98.000000,92.000000
745,25193.000,20.017000,0.037000,0.015000,1.173000,-4.690000,-11.550000,19.740000,1.532000,-0.695000,24.298000,3.111000,4.701000,98.000000,92.000000
746,25213.000,20.016001,0.024000,0.003000,1.146000,-7.630000,-9.730000,21.139999,1.373000,-0.660000,24.719999,2.822000,4.692000,98.000000,92.000000
747,25232.000,20.010000,0.010000,0.008000,1.130000,-10.850000,-9.170000,21.209999,1.164000,-0.615000,25.143999,2.437000,4.883000,98.000000,92.000000
748,25252.000,20.017000,0.005000,0.023000,1.058000,-8.470000,-9.590000,22.889999,1.049000,-0.592000,25.598000,2.183000,5.026000,98.000000,92.000000
749,25272.000,20.006001,-0.007000,0.001000,0.981000,-4.620000,-7.140000,22.330000,0.956000,-0.503000,26.045000,1.958000,5.346000,99.000000,92.000000
750,25292.000,20.009001,0.000000,0.000000,0.950000,-2.730000,-5.950000,22.049999,0.907000,-0.390000,26.486000,1.842000,5.964000,99.000000,92.000000
751,25312.000,20.000999,-0.004000,0.009000,0.925000,2.310000,-4.480000,20.930000,0.991000,-0.256000,26.902000,1.958000,6.719000,99.000000,93.000000
752,25332.000,20.002001,-0.021000,0.001000,0.880000,3.080000,-1.400000,21.139999,1.057000,-0.053000,27.323000,2.083000,7.810000,98.000000,93.000000
753,25351.000,20.007999,0.013000,0.010000,0.932000,2.800000,-1.400000,20.020000,1.172000,0.136000,27.719000,2.316000,9.123000,98.000000,94.000000
754,25371.000,20.004000,-0.006000,0.009000,0.878000,1.750000,-2.170000,18.200001,1.245000,0.316000,28.080000,2.473000,10.475000,98.000000,95.000000
755,25391.000,20.006001,-0.017000,-0.007000,0.898000,0.490000,2.730000,18.410000,1.238000,0.603000,28.448000,2.471000,12.025000,98.000000,96.000000
756,25411.000,20.009001,0.024000,0.000000,0.949000,1.190000,0.070000,17.430000,1.307000,0.827000,28.794001,2.601000,13.919000,98.000000,96.000000
757,25431.000,20.014000,0.029000,-0.014000,0.943000,-0.560000,-2.730000,17.500000,1.225000,0.998000,29.148001,2.455000,15.483000,98.000000,97.000000
758,25451.000,20.007999,-0.007000,-0.007000,0.935000,0.560000,0.210000,15.820000,1.230000,1.234000,29.464001,2.455000,16.941000,98.000000,98.000000
759,25471.000,20.014000,0.000000,0.000000,0.991000,3.290000,-0.770000,16.170000,1.324000,1.447000,29.785999,2.616000,18.648001,98.000000,99.000000
760,25490.000,20.009001,0.027000,-0.006000,0.934000,7.490000,-1.890000,14.350000,1.490000,1.638000,30.072001,2.905000,20.243999,98.000000,100.000000
761,25510.000,20.014000,-0.014000,0.009000,0.955000,13.440000,-0.560000,14.490000,1.803000,1.850000,30.361000,3.472000,21.757000,98.000000,100.000000
762,25530.000,20.011000,0.028000,0.017000,1.034000,21.629999,-2.800000,16.170000,2.411000,1.924000,30.677999,4.605000,22.687000,97.000000,101.000000
763,25550.000,20.002001,0.036000,-0.001000,1.017000,19.180000,-3.920000,15.680000,2.556000,1.874000,30.999001,4.920000,22.639000,97.000000,101.000000
764,25570.000,20.000999,0.026000,0.022000,1.109000,20.090000,-3.920000,16.309999,3.038000,1.999000,31.320999,5.876000,23.705000,97.000000,101.000000
765,25590.000,20.004999,0.055000,0.016000,1.091000,18.549999,-5.880000,18.549999,3.297000,1.666000,31.693001,6.409000,21.766001,96.000000,100.000000
766,25609.000,20.014000,0.032000,-0.015000,1.000000,11.410000,-8.890000,18.969999,3.286000,1.531000,32.077000,6.459000,21.289000,96.000000,100.000000
767,25629.000,20.011999,-0.008000,0.008000,0.914000,-1.890000,-8.890000,19.459999,3.159000,1.561000,32.465000,6.338000,21.650000,96.000000,100.000000
768,25649.000,20.013000,0.019000,0.018000,0.910000,-10.430000,-5.320000,23.100000,2.888000,1.669000,32.925999,5.880000,22.209000,97.000000,101.000000
769,25669.000,20.014999,0.023000,-0.027000,0.864000,-14.560000,-10.220000,22.820000,2.357000,1.522000,33.389000,4.860000,21.676001,97.000000,100.000000
770,25689.000,20.017000,-0.020000,0.008000,0.819000,-17.430000,-6.090000,22.400000,1.991000,1.626000,33.835999,4.156000,21.993000,97.000000,100.000000
771,25709.000,20.000999,0.023000,0.005000,0.909000,-17.360001,-3.850000,23.170000,1.655000,1.776000,34.297001,3.484000,22.816999,98.000000,101.000000
772,25728.000,20.014999,0.027000,-0.025000,0.956000,-19.110001,-9.240000,22.190001,1.048000,1.694000,34.750999,2.288000,22.781000,98.000000,101.000000
773,25748.000,20.033001,0.022000,0.023000,0.919000,-19.600000,-7.140000,21.209999,0.848000,1.651000,35.168999,1.892000,22.271000,99.000000,101.000000
774,25768.000,20.007999,0.036000,0.008000,0.970000,-17.920000,-6.790000,21.490000,0.696000,1.568000,35.591999,1.572000,21.653999,99.000000,100.000000
775,25788.000,20.006001,0.026000,-0.003000,1.006000,-20.299999,-10.360000,18.690001,0.429000,1.537000,35.963001,1.061000,21.798000,99.000000,100.000000
776,25808.000,20.007999,0.033000,0.014000,0.936000,-19.740000,-10.080000,19.320000,0.241000,1.392000,36.345001,0.679000,20.754000,99.000000,100.000000
777,25828.000,20.011000,0.029000,-0.007000,0.971000,-18.690001,-8.120000,19.600000,0.024000,1.389000,36.734001,0.234000,20.538000,99.000000,100.000000
778,25848.000,20.006001,0.041000,0.009000,1.000000,-14.070000,-9.380000,17.430000,-0.048000,1.244000,37.077999,0.046000,19.648001,99.000000,99.000000
779,25867.000,20.004999,0.034000,0.017000,0.992000,-9.450000,-9.660000,19.530001,-0.036000,1.127000,37.465000,0.023000,18.853001,99.000000,99.000000
780,25887.000,20.007999,0.046000,-0.015000,0.980000,-7.840000,-8.050000,17.850000,0.012000,1.030000,37.816002,0.102000,18.011999,99.000000,99.000000
781,25907.000,20.004999,0.037000,0.028000,1.002000,-6.370000,-9.030000,17.219999,0.087000,0.919000,38.153999,0.238000,17.339001,99.000000,98.000000
782,25927.000,20.004999,0.037000,0.027000,0.993000,-2.660000,-9.240000,19.459999,0.232000,0.810000,38.536999,0.491000,16.591999,99.000000,98.000000
783,25947.000,20.014999,0.050000,-0.015000,1.000000,-0.350000,-8.330000,18.340000,0.404000,0.765000,38.897999,0.811000,16.187000,99.000000,98.000000
784,25966.000,20.014000,0.044000,0.061000,0.980000,-0.350000,-8.960000,18.549999,0.602000,0.626000,39.261002,1.208000,15.281000,99.000000,97.000000
785,25986.000,20.013000,0.046000,0.014000,0.978000,3.570000,-7.210000,20.090000,0.865000,0.568000,39.653000,1.694000,14.695000,99.000000,97.000000
786,26006.000,20.006001,0.053000,-0.024000,1.007000,2.590000,-7.490000,19.600000,0.739000,0.595000,40.057999,1.452000,14.913000,99.000000,97.000000
787,26026.000,20.007000,0.048000,0.010000,0.985000,3.850000,-7.420000,20.160000,1.006000,0.534000,40.451000,1.974000,14.482000,99.000000,97.000000
788,26046.000,20.013000,0.045000,0.012000,0.997000,6.580000,-4.900000,21.490000,1.307000,0.560000,40.870998,2.549000,14.412000,98.000000,97.000000
789,26066.000,20.016001,0.038000,-0.022000,1.007000,9.240000,-5.600000,21.700001,1.349000,0.649000,41.313999,2.606000,15.101000,98.000000,97.000000
790,26086.000,20.011000,0.048000,0.033000,0.984000,10.920000,-4.900000,21.700001,1.764000,0.610000,41.736000,3.418000,14.757000,98.000000,97.000000
791,26105.000,20.004000,0.052000,0.011000,0.961000,14.070000,-4.060000,25.830000,2.223000,0.623000,42.242001,4.305000,14.766000,97.000000,97.000000
792,26125.000,20.014999,0.044000,0.005000,0.966000,13.160000,-2.660000,23.450001,2.417000,0.790000,42.714001,4.703000,15.798000,97.000000,97.000000
793,26145.000,20.002001,0.047000,0.033000,0.976000,12.600000,-2.870000,25.410000,2.857000,0.802000,43.209999,5.587000,15.904000,97.000000,97.000000
794,26165.000,20.016001,0.048000,-0.001000,0.965000,14.840000,-2.590000,26.110001,2.906000,0.811000,43.743999,5.663000,15.937000,97.000000,97.000000
795,26185.000,20.010000,0.037000,-0.013000,0.956000,14.420000,-1.190000,26.110001,2.963000,0.885000,44.278000,5.782000,16.316999,97.000000,98.000000
796,26205.000,20.016001,0.039000,0.020000,0.977000,16.940001,-0.280000,27.580000,3.278000,1.096000,44.831001,6.387000,17.698999,96.000000,98.000000
797,26224.000,20.014000,0.036000,-0.023000,0.986000,19.459999,1.120000,28.840000,3.419000,1.171000,45.419998,6.643000,18.082001,96.000000,99.000000
798,26244.000,20.007000,0.047000,-0.017000,0.962000,13.720000,-0.350000,30.100000,3.434000,1.154000,46.034000,6.731000,18.111000,96.000000,99.000000
799,26264.000,20.003000,0.045000,0.008000,0.948000,13.650000,-0.070000,30.660000,3.450000,1.173000,46.659000,6.764000,18.219000,96.000000,99.000000
800,26284.000,20.003000,0.039000,-0.020000,0.971000,13.230000,-1.330000,32.270000,3.458000,1.172000,47.314999,6.783000,18.339001,96.000000,99.000000
801,26304.000,20.010000,0.040000,-0.006000,0.927000,9.590000,-0.490000,31.500000,3.393000,1.189000,47.957001,6.690000,18.368999,96.000000,99.000000
802,26324.000,20.004000,0.054000,0.005000,0.921000,7.770000,-0.420000,33.040001,3.302000,1.078000,48.629002,6.526000,17.584999,96.000000,98.000000
803,26344.000,20.009001,0.031000,-0.020000,0.940000,5.180000,-0.140000,34.020000,3.157000,1.142000,49.320999,6.263000,18.006001,96.000000,99.000000
804,26363.000,20.003000,0.036000,0.005000,0.940000,1.820000,0.210000,34.160000,2.967000,1.254000,50.014000,5.915000,18.759001,97.000000,99.000000
805,26383.000,20.011999,0.044000,0.015000,0.913000,1.890000,-0.840000,35.209999,2.748000,1.280000,50.729000,5.477000,19.046000,97.000000,99.000000
806,26403.000,20.011000,0.001000,-0.014000,0.928000,0.630000,0.350000,35.139999,2.600000,1.466000,51.438999,5.193000,20.228001,97.000000,100.000000
807,26423.000,20.007999,0.049000,0.018000,0.921000,-1.050000,1.540000,34.930000,2.669000,1.294000,52.132999,5.349000,18.902000,97.000000,99.000000
808,26443.000,20.002001,0.040000,0.005000,0.917000,-0.210000,0.840000,36.259998,2.420000,1.391000,52.868999,4.843000,19.656000,97.000000,99.000000
809,26462.000,20.009001,0.038000,-0.004000,0.928000,-1.960000,1.890000,34.790001,2.133000,1.499000,53.576000,4.286000,20.306000,97.000000,100.000000
810,26482.000,20.006001,0.052000,-0.004000,0.941000,-2.800000,1.260000,34.230000,1.892000,1.353000,54.268002,3.811000,19.341999,98.000000,99.000000
811,26502.000,20.044001,0.043000,-0.015000,0.928000,-2.380000,0.770000,35.070000,1.582000,1.371000,54.980999,3.188000,19.521999,98.000000,99.000000
812,26522.000,20.011000,0.044000,-0.019000,0.935000,-4.340000,1.400000,33.669998,1.235000,1.391000,55.666000,2.513000,19.594999,98.000000,99.000000
813,26542.000,20.007000,0.047000,0.016000,0.944000,-4.200000,0.630000,33.529999,1.347000,1.376000,56.326000,2.736000,19.570999,98.000000,99.000000
814,26562.000,20.002001,0.035000,-0.006000,0.936000,-4.060000,0.490000,33.529999,1.268000,1.618000,56.995998,2.576000,21.280001,98.000000,100.000000
